Time_us,AccX_g,AccY_g,AccZ_g,GyroX_dps,GyroY_dps,GyroZ_dps
840306708.0,0.117432,0.078857,0.960693,-2.007634,-3.473282,-1.984733
840318574.0,0.125977,0.076416,0.959473,-2.21374,-5.396946,-1.885496
840330438.0,0.133301,0.086426,0.938232,-2.076336,-3.778626,-1.70229
840342309.0,0.123779,0.078125,0.937012,-1.954198,-3.603053,-1.977099
840354182.0,0.122803,0.079834,0.953857,-2.21374,-4.374046,-1.946565
840366047.0,0.129395,0.078613,0.942871,-2.229008,-4.801527,-1.938931
840377906.0,0.126953,0.079102,0.948242,-1.946565,-4.099236,-1.900763
840389773.0,0.121094,0.078125,0.948486,-1.877863,-3.70229,-1.938931
840401643.0,0.123291,0.077393,0.945068,-2.068702,-4.61832,-1.877863
840413510.0,0.128662,0.075928,0.940186,-1.923664,-4.580153,-1.89313
840425373.0,0.133545,0.075195,0.955566,-2.19084,-3.854962,-1.839695
840437244.0,0.12207,0.082031,0.946777,-1.946565,-3.755725,-1.740458
840449115.0,0.126221,0.080811,0.947998,-2.022901,-4.740458,-2.015267
840460975.0,0.133789,0.081055,0.944092,-1.923664,-4.251908,-1.916031
840472838.0,0.127197,0.08252,0.956543,-1.977099,-3.435115,-1.862595
840484715.0,0.130615,0.081787,0.954834,-2.030534,-4.389313,-1.908397
840496581.0,0.128174,0.077637,0.941162,-1.977099,-4.48855,-1.954198
840508447.0,0.127441,0.075684,0.939697,-1.870229,-3.557252,-1.80916
840520319.0,0.124268,0.080811,0.947021,-1.946565,-4.282443,-1.969466
840532190.0,0.127197,0.080078,0.951904,-2.221374,-4.374046,-1.923664
840544057.0,0.125977,0.079834,0.944824,-2.21374,-4.541985,-1.824427
840555916.0,0.130371,0.07666,0.953125,-1.900763,-4.137404,-1.946565
840567783.0,0.128906,0.080566,0.951172,-2.183206,-4.030534,-1.870229
840579652.0,0.12207,0.075195,0.94873,-2.076336,-4.496183,-1.992366
840591520.0,0.126465,0.077148,0.939697,-2.122137,-4.351145,-1.78626
840603398.0,0.129883,0.080322,0.945557,-2.091603,-3.748092,-2.076336
840615272.0,0.125,0.085205,0.947998,-2.259542,-4.389313,-1.748092
840627149.0,0.132812,0.084473,0.946777,-2.099237,-4.328244,-2.007634
840639028.0,0.123535,0.07373,0.945801,-2.022901,-3.908397,-1.908397
840650900.0,0.12085,0.075928,0.950928,-2.251908,-4.274809,-1.908397
840662770.0,0.128662,0.085449,0.942627,-2.160305,-4.519084,-1.900763
840674643.0,0.123779,0.078613,0.946777,-2.045802,-4.229008,-2.015267
840686507.0,0.122803,0.077393,0.947754,-2.221374,-3.709924,-1.885496
840698375.0,0.127441,0.078613,0.946777,-2.022901,-4.526718,-1.938931
840710249.0,0.125244,0.077637,0.957275,-1.961832,-4.251908,-2.015267
840722109.0,0.125977,0.080811,0.950928,-1.969466,-4.19084,-1.870229
840733970.0,0.123047,0.080566,0.946777,-2.19084,-3.992366,-1.969466
840745833.0,0.120117,0.077148,0.941406,-2.152672,-4.160306,-1.862595
840757706.0,0.125977,0.079346,0.947021,-2.10687,-4.335878,-1.839695
840769574.0,0.125488,0.080566,0.949707,-1.961832,-3.839695,-1.877863
840781439.0,0.127197,0.078369,0.954834,-1.984733,-4.122138,-1.816794
840793310.0,0.125,0.083496,0.95752,-2.251908,-4.51145,-1.816794
840805180.0,0.125488,0.081055,0.942627,-2.076336,-4.114504,-1.89313
840817047.0,0.121094,0.078613,0.945312,-2.145038,-4.091603,-1.916031
840828906.0,0.13208,0.083252,0.950439,-2.038168,-4.335878,-1.984733
840840771.0,0.125488,0.081787,0.943848,-2.206107,-4.572519,-1.877863
840852642.0,0.128662,0.080566,0.942383,-1.961832,-4.221374,-2.10687
840864509.0,0.121582,0.080811,0.947998,-2.160305,-4.175572,-1.847328
840876373.0,0.122559,0.078369,0.947266,-2.267176,-4.320611,-1.984733
840888244.0,0.130127,0.075684,0.950195,-1.977099,-4.061069,-1.916031
840900109.0,0.117432,0.076172,0.94458,-1.923664,-4.290076,-1.908397
840911970.0,0.126465,0.082764,0.955078,-2.076336,-4.068702,-1.916031
840923833.0,0.128174,0.081543,0.94873,-2.022901,-4.282443,-1.816794
840935706.0,0.11792,0.084229,0.939209,-2.015267,-4.129771,-1.946565
840947574.0,0.133545,0.078857,0.946045,-2.236641,-4.312977,-1.854962
840959438.0,0.125,0.081055,0.949951,-2.10687,-4.122138,-1.824427
840971312.0,0.124023,0.082764,0.950195,-2.129771,-4.236641,-2.007634
840983181.0,0.123535,0.080078,0.950439,-2.068702,-4.152672,-1.961832
840995047.0,0.123047,0.076172,0.949463,-2.137405,-4.274809,-1.977099
841006905.0,0.127686,0.075195,0.949951,-2.076336,-4.312977,-2.122137
841018771.0,0.118652,0.079346,0.943604,-2.053435,-4.137404,-1.70229
841030643.0,0.130127,0.085449,0.956543,-2.183206,-4.053435,-1.977099
841042510.0,0.132568,0.07959,0.94043,-1.984733,-4.122138,-1.954198
841054374.0,0.122559,0.08374,0.945068,-1.954198,-4.030534,-1.885496
841066245.0,0.125244,0.079346,0.948975,-1.992366,-3.946565,-1.89313
841078109.0,0.125977,0.079834,0.945557,-2.152672,-4.274809,-1.832061
841089970.0,0.124268,0.080811,0.949219,-2.038168,-4.129771,-1.885496
841101833.0,0.127441,0.083008,0.946777,-1.977099,-4.21374,-1.931298
841113708.0,0.126221,0.082764,0.950684,-2.145038,-4.229008,-1.755725
841125578.0,0.126953,0.079102,0.948242,-2.076336,-4.221374,-1.801527
841137446.0,0.123291,0.080811,0.943604,-2.152672,-3.961832,-2.022901
841149317.0,0.124756,0.083496,0.951904,-2.21374,-4.236641,-1.961832
841161190.0,0.123535,0.082764,0.95166,-2.007634,-4.236641,-1.969466
841173057.0,0.132324,0.080811,0.950195,-2.030534,-3.992366,-2.0
841184912.0,0.12207,0.077881,0.954102,-1.954198,-4.465649,-1.847328
841196780.0,0.125488,0.08252,0.950928,-2.076336,-4.328244,-1.931298
841208649.0,0.123779,0.081299,0.943604,-2.320611,-4.274809,-2.038168
841220513.0,0.123535,0.082764,0.938477,-1.992366,-3.916031,-1.801527
841232377.0,0.124512,0.07959,0.948486,-2.129771,-4.274809,-1.854962
841244249.0,0.12085,0.080322,0.952148,-2.061069,-4.442748,-1.89313
841256109.0,0.128174,0.075684,0.947754,-2.160305,-4.183206,-1.938931
841267970.0,0.130615,0.080078,0.946777,-1.977099,-4.145038,-1.969466
841279833.0,0.12085,0.075439,0.95459,-2.244275,-4.10687,-1.954198
841291708.0,0.128174,0.080078,0.9375,-2.030534,-4.137404,-1.931298
841303574.0,0.126709,0.082031,0.945312,-1.778626,-4.259542,-1.839695
841315438.0,0.133301,0.078125,0.936768,-2.038168,-4.183206,-1.954198
841327312.0,0.126221,0.078613,0.95166,-1.946565,-4.10687,-2.045802
841339188.0,0.126709,0.074219,0.945801,-2.305344,-4.282443,-2.030534
841351048.0,0.127197,0.082031,0.934326,-2.122137,-4.137404,-1.839695
841362908.0,0.121338,0.072754,0.947266,-2.038168,-4.389313,-1.832061
841374773.0,0.124023,0.072021,0.939453,-1.961832,-4.183206,-1.877863
841386642.0,0.132812,0.081299,0.940918,-2.083969,-4.343512,-1.969466
841398508.0,0.121826,0.083984,0.945557,-2.129771,-4.076336,-1.938931
841410374.0,0.122559,0.087646,0.957764,-1.877863,-4.221374,-1.687023
841422248.0,0.130127,0.08252,0.952393,-2.145038,-4.343512,-1.954198
841434109.0,0.126221,0.078125,0.942383,-2.160305,-4.236641,-1.854962
841445970.0,0.130859,0.078857,0.949707,-1.969466,-4.229008,-1.954198
841457833.0,0.132324,0.066895,0.937988,-2.229008,-3.854962,-1.877863
841469706.0,0.122559,0.082764,0.94458,-2.015267,-4.534351,-2.007634
841481573.0,0.122803,0.066162,0.962646,-2.007634,-3.580153,-1.908397
841493438.0,0.122314,0.084961,0.934082,-1.961832,-4.236641,-1.839695
841505310.0,0.127197,0.087891,0.941895,-2.038168,-4.564886,-1.778626
841517181.0,0.12915,0.080322,0.947266,-2.068702,-3.885496,-1.717557
841529044.0,0.118896,0.077637,0.967529,-2.167939,-3.778626,-1.839695
841540907.0,0.122803,0.087402,0.938965,-1.954198,-4.519084,-1.755725
841552772.0,0.133301,0.078125,0.937256,-1.969466,-4.435114,-1.80916
841564642.0,0.121582,0.078613,0.962402,-1.984733,-3.549618,-1.870229
841576509.0,0.123535,0.082764,0.947266,-2.198473,-4.335878,-2.038168
841588374.0,0.126953,0.075195,0.932617,-2.076336,-4.61832,-1.793893
841600248.0,0.131592,0.076904,0.954834,-2.267176,-3.946565,-1.923664
841612109.0,0.127197,0.075928,0.952637,-1.847328,-3.946565,-1.717557
841623973.0,0.126953,0.079346,0.940918,-2.175573,-4.045802,-2.007634
841635836.0,0.123291,0.077393,0.945312,-2.030534,-4.61832,-1.984733
841647707.0,0.129883,0.08374,0.943848,-2.114504,-4.259542,-1.793893
841659574.0,0.123535,0.075195,0.948975,-2.129771,-3.526718,-1.877863
841671440.0,0.125244,0.080078,0.952148,-2.19084,-4.305344,-1.832061
841683310.0,0.119629,0.078369,0.950684,-2.053435,-4.557252,-1.931298
841695188.0,0.133545,0.075439,0.942871,-1.938931,-3.938931,-1.748092
841707050.0,0.124512,0.084473,0.946533,-1.977099,-3.763359,-1.961832
841718910.0,0.132812,0.074463,0.948486,-2.167939,-4.778626,-2.007634
841730779.0,0.128906,0.082031,0.938232,-1.984733,-4.129771,-1.923664
841742649.0,0.121582,0.079102,0.948486,-1.954198,-3.679389,-2.015267
841754511.0,0.121094,0.080811,0.949707,-2.022901,-4.748092,-1.916031
841766373.0,0.126465,0.083008,0.943604,-2.099237,-4.236641,-2.053435
841778245.0,0.128906,0.076904,0.945312,-2.083969,-4.114504,-2.0
841790109.0,0.126953,0.078125,0.947021,-2.030534,-3.763359,-1.877863
841801973.0,0.119141,0.080078,0.959229,-2.183206,-4.19084,-1.778626
841813836.0,0.126953,0.075928,0.952637,-1.961832,-4.91603,-1.793893
841825708.0,0.125,0.073486,0.937256,-1.870229,-3.89313,-1.992366
841837579.0,0.127441,0.084473,0.939941,-2.015267,-4.167939,-2.099237
841849447.0,0.121826,0.084229,0.945068,-1.923664,-4.305344,-1.961832
841861319.0,0.132568,0.081299,0.946777,-2.29771,-4.274809,-1.900763
841873190.0,0.125,0.07666,0.942383,-2.221374,-3.908397,-1.969466
841885049.0,0.126953,0.076172,0.947754,-1.961832,-4.145038,-1.854962
841896910.0,0.137939,0.083252,0.93335,-2.0,-4.519084,-1.923664
841908778.0,0.125244,0.078369,0.951416,-2.076336,-3.931298,-1.801527
841920643.0,0.124512,0.077881,0.944336,-2.015267,-4.145038,-1.916031
841932510.0,0.118896,0.080322,0.949707,-2.183206,-4.152672,-2.045802
841944375.0,0.118408,0.076904,0.948486,-2.045802,-4.29771,-1.969466
841956248.0,0.129883,0.078125,0.938232,-1.900763,-4.137404,-1.908397
841968109.0,0.123291,0.077393,0.962646,-2.10687,-3.824427,-1.961832
841979970.0,0.128174,0.075195,0.943848,-2.091603,-4.396946,-1.946565
841991835.0,0.134277,0.075684,0.941406,-2.198473,-4.198473,-2.022901
842003707.0,0.121338,0.07666,0.945801,-1.900763,-3.89313,-2.022901
842015574.0,0.116699,0.084473,0.946533,-2.030534,-4.206107,-1.977099
842027438.0,0.122559,0.082031,0.949951,-2.198473,-4.419847,-1.916031
842039310.0,0.130859,0.081055,0.943359,-2.206107,-4.48855,-1.977099
842051188.0,0.125,0.08374,0.946045,-2.068702,-3.877863,-1.862595
842063048.0,0.12915,0.074707,0.949463,-2.145038,-4.19084,-1.832061
842074906.0,0.125244,0.080322,0.947998,-2.045802,-4.343512,-1.740458
842086773.0,0.121338,0.07666,0.941895,-2.076336,-3.908397,-1.870229
842098643.0,0.124023,0.081299,0.956543,-2.244275,-4.244275,-1.778626
842110508.0,0.128662,0.071289,0.954346,-2.244275,-4.007634,-1.870229
842122374.0,0.123779,0.077393,0.941406,-2.145038,-4.480916,-1.908397
842134246.0,0.131348,0.083252,0.94165,-2.083969,-4.122138,-1.977099
842146115.0,0.120361,0.081543,0.955566,-2.129771,-4.099236,-1.923664
842157974.0,0.12915,0.08252,0.951416,-2.19084,-4.51145,-1.847328
842169841.0,0.124268,0.078125,0.953613,-2.320611,-4.091603,-1.89313
842181714.0,0.126221,0.07666,0.946045,-2.10687,-4.022901,-2.030534
842193581.0,0.115479,0.078613,0.953857,-2.061069,-4.221374,-1.923664
842205448.0,0.125732,0.07666,0.940674,-2.076336,-4.38168,-1.931298
842217330.0,0.125488,0.081055,0.940918,-1.977099,-3.938931,-1.938931
842229197.0,0.119385,0.079834,0.950684,-1.916031,-4.167939,-1.755725
842241064.0,0.121094,0.080811,0.945557,-2.160305,-4.40458,-1.923664
842252932.0,0.127686,0.083008,0.942871,-2.083969,-3.992366,-1.694656
842264803.0,0.128906,0.077393,0.95459,-2.045802,-4.015267,-1.908397
842276676.0,0.130371,0.079102,0.94458,-1.916031,-4.290076,-1.862595
842288551.0,0.119629,0.077393,0.949219,-2.129771,-3.977099,-1.78626
842300428.0,0.131592,0.084717,0.935547,-2.19084,-4.061069,-1.961832
842312298.0,0.120605,0.082764,0.944824,-2.167939,-4.007634,-1.793893
842324173.0,0.121826,0.084473,0.959229,-2.0,-4.022901,-1.862595
842336040.0,0.123779,0.079102,0.9375,-2.114504,-4.755725,-1.969466
842347901.0,0.131104,0.079834,0.94458,-2.061069,-3.885496,-1.992366
842359772.0,0.118164,0.081787,0.956543,-1.78626,-4.145038,-1.870229
842371643.0,0.124756,0.079346,0.949707,-2.145038,-4.526718,-1.89313
842383509.0,0.126709,0.07251,0.939941,-2.251908,-4.099236,-1.992366
842395373.0,0.125732,0.078613,0.954102,-2.015267,-3.992366,-2.0
842407244.0,0.124512,0.069824,0.95166,-2.221374,-4.229008,-1.832061
842419109.0,0.123779,0.077637,0.95459,-2.030534,-4.267176,-1.931298
842430970.0,0.123291,0.078613,0.937012,-2.083969,-3.984733,-1.763359
842442833.0,0.125977,0.084473,0.943359,-1.900763,-4.206107,-1.977099
842454707.0,0.123047,0.083008,0.948242,-2.099237,-3.908397,-1.78626
842466574.0,0.130615,0.078125,0.946777,-2.381679,-4.351145,-1.770992
842478440.0,0.132568,0.081299,0.938477,-1.961832,-4.59542,-1.870229
842490310.0,0.134033,0.074219,0.955078,-1.954198,-3.305344,-1.938931
842502188.0,0.124023,0.084717,0.953125,-1.923664,-4.122138,-1.977099
842514048.0,0.129883,0.078857,0.933838,-2.175573,-4.801527,-1.89313
842525910.0,0.132568,0.079102,0.936768,-2.053435,-3.793893,-1.908397
842537780.0,0.118652,0.082275,0.965088,-2.19084,-4.343512,-1.946565
842549649.0,0.120361,0.071289,0.936523,-2.320611,-4.610687,-2.045802
842561513.0,0.127686,0.084961,0.955566,-1.885496,-4.129771,-1.801527
842573381.0,0.126709,0.083008,0.948975,-1.984733,-4.358778,-1.832061
842585249.0,0.131592,0.078369,0.945557,-1.839695,-3.549618,-1.946565
842597115.0,0.123779,0.081055,0.957031,-2.045802,-4.244275,-1.946565
842608974.0,0.127441,0.083008,0.941162,-1.992366,-4.687023,-1.977099
842620842.0,0.130127,0.077393,0.949463,-2.030534,-3.633588,-1.862595
842632714.0,0.125,0.08374,0.958252,-2.198473,-4.206107,-1.977099
842644581.0,0.11377,0.070801,0.940918,-2.229008,-4.900764,-1.732824
842656448.0,0.125,0.085693,0.94458,-1.961832,-4.236641,-1.89313
842668318.0,0.134033,0.081543,0.94873,-2.007634,-3.564885,-1.816794
842680190.0,0.112305,0.081543,0.94751,-2.015267,-4.145038,-1.923664
842692057.0,0.127686,0.082275,0.931885,-2.274809,-5.19084,-2.030534
842703914.0,0.135254,0.078125,0.939941,-2.274809,-3.259542,-1.885496
842715780.0,0.121582,0.080078,0.963135,-2.10687,-3.916031,-1.877863
842727649.0,0.12793,0.086426,0.944092,-2.251908,-4.969466,-2.083969
842739511.0,0.122803,0.081543,0.942871,-2.129771,-3.854962,-1.969466
842751376.0,0.124023,0.084717,0.956543,-2.29771,-4.053435,-1.916031
842763249.0,0.134766,0.088135,0.949951,-1.954198,-4.267176,-2.022901
842775109.0,0.125,0.076416,0.94165,-2.267176,-4.282443,-1.984733
842786970.0,0.120117,0.07959,0.947754,-2.038168,-4.442748,-1.793893
842798833.0,0.126953,0.074707,0.94873,-2.152672,-3.687023,-2.0
842810705.0,0.131104,0.064209,0.951172,-2.282443,-3.770992,-1.954198
842822574.0,0.117676,0.076172,0.952393,-1.938931,-4.557252,-1.916031
842834438.0,0.127441,0.083496,0.928955,-2.10687,-4.267176,-1.778626
842846310.0,0.124023,0.08374,0.944824,-2.206107,-3.496183,-1.732824
842858182.0,0.126221,0.087158,0.97168,-1.938931,-4.740458,-1.923664
842870047.0,0.129883,0.073975,0.928467,-2.221374,-5.091603,-1.877863
842881906.0,0.129883,0.080566,0.937744,-1.832061,-3.320611,-1.854962
842893773.0,0.119873,0.078125,0.974121,-1.969466,-3.816794,-1.862595
842905643.0,0.131836,0.077393,0.937256,-2.244275,-4.977099,-1.885496
842917507.0,0.129395,0.069336,0.933838,-2.175573,-4.206107,-1.854962
842929374.0,0.116699,0.08667,0.961182,-1.916031,-3.946565,-2.061069
842941249.0,0.127686,0.080078,0.942627,-2.0,-4.480916,-1.78626
842953109.0,0.120605,0.079102,0.937744,-2.152672,-4.137404,-2.007634
842964970.0,0.129883,0.082275,0.945557,-2.374046,-4.740458,-1.885496
842976833.0,0.124023,0.081543,0.948242,-2.10687,-4.206107,-1.885496
842988706.0,0.120117,0.082031,0.95166,-2.007634,-3.80916,-2.053435
843000573.0,0.12793,0.078125,0.948486,-2.015267,-4.534351,-1.801527
843012438.0,0.132812,0.074951,0.942627,-2.198473,-4.503817,-1.916031
843024309.0,0.122559,0.077148,0.948486,-2.076336,-3.610687,-1.847328
843036181.0,0.125488,0.080566,0.946289,-1.931298,-4.38168,-1.832061
843048047.0,0.128906,0.078369,0.937744,-2.206107,-4.885496,-1.969466
843059907.0,0.126221,0.084473,0.945068,-1.938931,-3.549618,-1.916031
843071772.0,0.116455,0.077637,0.956299,-2.061069,-4.137404,-1.984733
843083643.0,0.125977,0.072998,0.946777,-2.068702,-4.740458,-2.061069
843095510.0,0.128906,0.076904,0.947998,-1.969466,-3.801527,-1.969466
843107374.0,0.126221,0.081787,0.944336,-1.938931,-4.061069,-2.061069
843119248.0,0.124268,0.078125,0.944092,-2.083969,-3.984733,-1.755725
843131109.0,0.121338,0.074463,0.94458,-2.259542,-4.236641,-1.916031
843142970.0,0.123291,0.084717,0.939697,-2.045802,-4.442748,-2.10687
843154833.0,0.124512,0.079834,0.94043,-1.938931,-4.022901,-1.992366
843166706.0,0.124268,0.078613,0.947998,-1.946565,-4.122138,-1.969466
843178574.0,0.123291,0.078613,0.952148,-2.183206,-4.473282,-1.946565
843190438.0,0.132812,0.08252,0.942139,-1.916031,-3.885496,-1.923664
843202312.0,0.125732,0.082275,0.938477,-2.022901,-3.900763,-1.862595
843214191.0,0.126465,0.077393,0.953857,-1.961832,-4.465649,-1.778626
843226058.0,0.126465,0.076904,0.943848,-2.160305,-4.19084,-2.030534
843237916.0,0.124756,0.077881,0.950195,-1.977099,-4.122138,-2.007634
843249783.0,0.128662,0.089355,0.960693,-1.961832,-4.519084,-1.916031
843261649.0,0.128662,0.07666,0.941406,-2.0,-4.061069,-1.854962
843273510.0,0.119141,0.076172,0.939941,-2.099237,-3.748092,-1.755725
843285374.0,0.138672,0.089844,0.957764,-1.969466,-4.419847,-1.984733
843297249.0,0.123779,0.083252,0.938721,-2.045802,-4.526718,-2.030534
843309109.0,0.124512,0.082031,0.928955,-2.152672,-3.847328,-1.740458
843320972.0,0.112793,0.080566,0.958252,-2.221374,-4.358778,-1.801527
843332836.0,0.125,0.076172,0.940186,-2.160305,-4.854962,-1.862595
843344707.0,0.123779,0.067871,0.946777,-2.061069,-4.442748,-1.885496
843356574.0,0.126953,0.083984,0.950439,-2.122137,-4.015267,-1.816794
843368439.0,0.126221,0.077881,0.943848,-2.038168,-4.198473,-1.862595
843380310.0,0.123291,0.080811,0.959473,-1.931298,-4.129771,-1.89313
843392181.0,0.125977,0.078369,0.943115,-2.290076,-4.442748,-1.847328
843404044.0,0.130371,0.077148,0.952148,-2.038168,-3.770992,-1.847328
843415906.0,0.125,0.07666,0.949219,-2.129771,-4.221374,-1.961832
843427772.0,0.131348,0.076172,0.947754,-2.122137,-4.290076,-1.854962
843439642.0,0.128906,0.079346,0.947021,-2.038168,-3.763359,-1.923664
843451508.0,0.122803,0.083984,0.950195,-2.167939,-3.694656,-1.801527
843463375.0,0.113525,0.077393,0.951416,-2.206107,-4.152672,-1.89313
843475248.0,0.125,0.081055,0.940918,-1.839695,-4.38168,-1.938931
843487115.0,0.122314,0.082764,0.949219,-2.21374,-3.755725,-1.80916
843498975.0,0.125,0.071533,0.960205,-2.015267,-4.061069,-1.847328
843510839.0,0.130127,0.08374,0.952637,-1.931298,-4.442748,-1.954198
843522711.0,0.13623,0.085205,0.945801,-2.274809,-3.992366,-1.969466
843534574.0,0.114746,0.070068,0.947754,-2.152672,-3.458015,-1.748092
843546438.0,0.128906,0.083496,0.945801,-2.129771,-4.137404,-1.816794
843558313.0,0.12793,0.07251,0.950439,-2.137405,-4.885496,-1.938931
843570182.0,0.126465,0.076904,0.942627,-2.152672,-3.679389,-1.824427
843582047.0,0.124756,0.083984,0.956299,-2.0,-3.770992,-2.045802
843593904.0,0.124756,0.080078,0.937012,-1.954198,-4.664122,-1.977099
843605770.0,0.125732,0.070801,0.955322,-2.175573,-4.152672,-2.10687
843617643.0,0.13208,0.08667,0.956543,-2.343511,-3.70229,-1.694656
843629508.0,0.118896,0.080811,0.942383,-2.328244,-4.175572,-2.015267
843641376.0,0.130615,0.078125,0.949707,-2.0,-4.183206,-1.740458
843653248.0,0.121582,0.076416,0.946777,-2.183206,-4.160306,-1.78626
843665109.0,0.13501,0.072998,0.946777,-2.122137,-3.748092,-1.854962
843676972.0,0.119141,0.076904,0.956055,-2.015267,-3.816794,-1.931298
843688837.0,0.126953,0.080078,0.943359,-2.152672,-4.061069,-1.938931
843700707.0,0.131104,0.07666,0.944336,-2.183206,-3.755725,-1.824427
843712579.0,0.125,0.078125,0.95459,-2.21374,-3.984733,-1.923664
843724444.0,0.125732,0.087891,0.945312,-2.236641,-4.015267,-1.916031
843736314.0,0.132324,0.069092,0.946777,-2.061069,-4.503817,-1.793893
843748188.0,0.119385,0.084473,0.947021,-2.007634,-3.839695,-1.916031
843760048.0,0.129639,0.075439,0.955566,-2.007634,-3.824427,-1.931298
843771909.0,0.122803,0.078125,0.94751,-2.198473,-4.389313,-1.877863
843783776.0,0.12207,0.077637,0.945312,-2.221374,-3.816794,-1.877863
843795643.0,0.128662,0.081055,0.941895,-2.030534,-4.183206,-1.954198
843807510.0,0.125488,0.076904,0.942139,-2.091603,-4.21374,-1.78626
843819374.0,0.131104,0.088135,0.957275,-2.183206,-4.328244,-1.870229
843831249.0,0.118652,0.074707,0.954346,-2.114504,-4.343512,-2.045802
843843109.0,0.125244,0.075439,0.927002,-2.030534,-4.587786,-1.847328
843854970.0,0.127197,0.081055,0.960449,-2.045802,-3.580153,-1.847328
843866833.0,0.124268,0.07959,0.949707,-2.099237,-4.221374,-1.717557
843878706.0,0.127197,0.077393,0.944824,-2.259542,-4.671756,-1.977099
843890574.0,0.119141,0.080078,0.949707,-2.167939,-3.725191,-1.946565
843902438.0,0.123779,0.082764,0.957275,-2.068702,-4.465649,-1.900763
843914309.0,0.123779,0.074463,0.939697,-2.0,-3.763359,-1.870229
843926182.0,0.120361,0.075195,0.94873,-1.89313,-4.694656,-1.89313
843938047.0,0.123779,0.083496,0.952148,-2.007634,-4.183206,-1.862595
843949906.0,0.125,0.080322,0.944824,-2.083969,-3.931298,-1.89313
843961770.0,0.12207,0.078857,0.948975,-1.954198,-4.175572,-1.977099
843973643.0,0.127441,0.078125,0.946045,-2.129771,-4.274809,-1.847328
843985510.0,0.130615,0.079834,0.952148,-2.221374,-4.38168,-1.954198
843997375.0,0.119141,0.074707,0.95752,-2.206107,-3.778626,-1.938931
844009249.0,0.130615,0.084473,0.95874,-2.335878,-4.572519,-1.839695
844021118.0,0.130371,0.077881,0.959229,-2.022901,-4.496183,-1.916031
844032975.0,0.124756,0.081055,0.945801,-2.007634,-3.89313,-1.992366
844044838.0,0.123535,0.075439,0.94751,-1.931298,-4.38168,-1.862595
844056711.0,0.126953,0.076416,0.951416,-2.274809,-4.030534,-1.832061
844068579.0,0.126953,0.082275,0.952881,-2.167939,-4.282443,-1.885496
844080450.0,0.123535,0.079346,0.954346,-1.977099,-4.08397,-1.862595
844092319.0,0.129395,0.078125,0.944336,-2.076336,-3.839695,-1.80916
844104190.0,0.122803,0.084717,0.949219,-1.946565,-4.221374,-2.007634
844116053.0,0.120605,0.07959,0.952393,-2.038168,-4.167939,-1.908397
844127914.0,0.125977,0.070801,0.949219,-2.022901,-4.076336,-1.931298
844139779.0,0.121094,0.084473,0.950684,-1.847328,-4.129771,-1.870229
844151643.0,0.124512,0.079834,0.948486,-2.206107,-3.961832,-1.916031
844163508.0,0.126221,0.079834,0.950195,-2.137405,-4.061069,-1.816794
844175373.0,0.125488,0.08252,0.945801,-2.053435,-3.946565,-1.854962
844187248.0,0.125,0.085205,0.950928,-2.061069,-4.022901,-1.801527
844199109.0,0.121582,0.079834,0.940186,-2.19084,-4.068702,-1.908397
844210970.0,0.122559,0.090088,0.943848,-2.251908,-4.022901,-1.78626
844222833.0,0.128418,0.07373,0.948975,-1.969466,-4.282443,-1.847328
844234706.0,0.129883,0.084229,0.949463,-2.114504,-3.648855,-1.778626
844246574.0,0.126953,0.075439,0.946289,-2.129771,-4.061069,-1.908397
844258438.0,0.123535,0.08252,0.946777,-2.244275,-4.007634,-1.916031
844270313.0,0.12793,0.08374,0.944824,-2.053435,-3.80916,-1.908397
844282188.0,0.123779,0.083252,0.944336,-2.007634,-4.51145,-2.053435
844294048.0,0.116211,0.082275,0.941162,-2.099237,-3.946565,-1.854962
844305907.0,0.124512,0.070801,0.952881,-2.083969,-4.175572,-1.984733
844317771.0,0.114258,0.080566,0.941895,-1.916031,-4.053435,-1.923664
844329643.0,0.132324,0.073975,0.943604,-2.068702,-3.946565,-1.954198
844341507.0,0.124756,0.084961,0.942871,-2.160305,-3.89313,-1.885496
844353374.0,0.126709,0.080078,0.946045,-1.78626,-4.236641,-1.801527
844365246.0,0.123291,0.079102,0.941895,-2.10687,-4.320611,-1.847328
844377109.0,0.118652,0.083252,0.945557,-1.923664,-3.717557,-1.992366
844388973.0,0.122314,0.081543,0.958496,-2.10687,-4.045802,-1.763359
844400836.0,0.127686,0.07959,0.956787,-2.129771,-4.19084,-1.954198
844412707.0,0.126709,0.074951,0.942627,-2.091603,-3.946565,-2.007634
844424579.0,0.121582,0.084473,0.947266,-2.083969,-3.748092,-1.885496
844436447.0,0.119629,0.077881,0.949219,-2.030534,-4.0,-1.793893
844448317.0,0.121582,0.079346,0.955811,-2.312977,-4.038168,-1.824427
844460190.0,0.125732,0.074707,0.942383,-2.183206,-4.221374,-1.984733
844472057.0,0.13208,0.075928,0.943359,-2.022901,-4.251908,-1.954198
844483916.0,0.128418,0.080566,0.940918,-2.244275,-3.59542,-1.816794
844495781.0,0.12915,0.080811,0.952148,-2.068702,-4.045802,-1.847328
844507652.0,0.117432,0.079102,0.944336,-2.0,-3.923664,-1.717557
844519518.0,0.123535,0.078125,0.94458,-2.10687,-4.251908,-1.816794
844531385.0,0.122314,0.076416,0.952881,-1.969466,-4.389313,-1.89313
844543262.0,0.121094,0.078613,0.954346,-2.053435,-4.10687,-1.862595
844555136.0,0.127441,0.084473,0.949463,-1.854962,-4.038168,-2.045802
844567011.0,0.126709,0.074219,0.956055,-2.007634,-4.038168,-1.824427
844578882.0,0.125,0.078857,0.9375,-1.954198,-4.183206,-2.061069
844590759.0,0.120605,0.077881,0.947266,-2.10687,-3.984733,-1.793893
844602634.0,0.123291,0.07666,0.941895,-2.083969,-4.137404,-1.824427
844614504.0,0.120361,0.078369,0.947998,-2.198473,-4.183206,-1.954198
844626373.0,0.131104,0.078125,0.952148,-1.908397,-4.175572,-1.900763
844638245.0,0.128906,0.08252,0.944824,-2.007634,-3.900763,-2.0
844650109.0,0.125244,0.083984,0.947266,-1.969466,-3.755725,-1.824427
844661973.0,0.120117,0.07959,0.954102,-2.129771,-3.870229,-1.694656
844673837.0,0.116699,0.077393,0.941895,-2.198473,-4.167939,-1.854962
844685709.0,0.122803,0.08374,0.945312,-2.015267,-3.89313,-1.977099
844697574.0,0.124512,0.086914,0.949707,-1.89313,-4.114504,-1.740458
844709439.0,0.126953,0.078857,0.946533,-2.061069,-3.931298,-1.885496
844721310.0,0.124023,0.076172,0.942871,-2.152672,-3.992366,-1.801527
844733182.0,0.115723,0.076172,0.948975,-2.244275,-4.08397,-2.015267
844745047.0,0.124512,0.081543,0.954102,-2.099237,-3.954198,-1.885496
844756906.0,0.122803,0.082031,0.953369,-1.984733,-4.091603,-1.80916
844768773.0,0.113281,0.083984,0.943604,-2.007634,-4.152672,-1.870229
844780643.0,0.124512,0.080811,0.948486,-1.847328,-4.045802,-2.099237
844792507.0,0.124756,0.085205,0.947754,-2.030534,-4.221374,-1.78626
844804372.0,0.129639,0.079102,0.939453,-2.022901,-3.954198,-1.824427
844816245.0,0.123047,0.079102,0.949463,-2.160305,-4.160306,-1.984733
844828109.0,0.125732,0.076172,0.943359,-2.19084,-4.152672,-1.770992
844839970.0,0.119873,0.081543,0.953857,-2.145038,-4.038168,-2.267176
844851833.0,0.126465,0.079102,0.945312,-1.862595,-4.145038,-1.870229
844863706.0,0.119141,0.080322,0.944824,-2.167939,-4.022901,-1.763359
844875578.0,0.12085,0.078857,0.938477,-1.900763,-4.221374,-1.885496
844887448.0,0.119141,0.079834,0.947266,-2.099237,-4.122138,-2.015267
844899319.0,0.121094,0.082764,0.953857,-2.038168,-4.129771,-1.877863
844911190.0,0.125488,0.083496,0.943848,-1.984733,-4.129771,-1.89313
844923057.0,0.118164,0.075195,0.942871,-2.068702,-3.961832,-1.89313
844934915.0,0.121338,0.077393,0.948486,-1.954198,-3.984733,-2.061069
844946781.0,0.122559,0.081055,0.956299,-2.229008,-4.022901,-1.854962
844958650.0,0.12085,0.078369,0.948242,-2.114504,-4.015267,-2.076336
844970511.0,0.124756,0.088623,0.943359,-2.007634,-4.114504,-1.946565
844982375.0,0.125488,0.078857,0.956787,-2.091603,-4.175572,-2.068702
844994249.0,0.124268,0.078369,0.946777,-1.900763,-4.160306,-1.977099
845006109.0,0.123535,0.083008,0.950195,-2.061069,-4.015267,-1.89313
845017970.0,0.128662,0.082031,0.948975,-2.114504,-3.832061,-1.80916
845029833.0,0.116455,0.083984,0.950439,-2.21374,-3.946565,-1.923664
845041706.0,0.120361,0.08374,0.949219,-2.083969,-3.870229,-1.89313
845053574.0,0.123779,0.080322,0.947998,-1.984733,-4.351145,-1.984733
845065437.0,0.124023,0.07666,0.945557,-2.152672,-4.076336,-1.770992
845077310.0,0.119873,0.078125,0.944092,-1.671756,-4.10687,-1.78626
845089180.0,0.115723,0.071777,0.942627,-2.053435,-4.320611,-1.961832
845101047.0,0.125732,0.080078,0.946777,-2.129771,-3.938931,-1.824427
845112906.0,0.120117,0.085449,0.950439,-1.977099,-4.152672,-2.030534
845124770.0,0.122314,0.07959,0.949463,-1.900763,-3.954198,-2.076336
845136643.0,0.123047,0.076904,0.960205,-2.0,-4.114504,-1.847328
845148506.0,0.125732,0.073242,0.945068,-1.816794,-4.053435,-1.839695
845160373.0,0.124268,0.080566,0.942383,-2.160305,-4.007634,-1.816794
845172244.0,0.118896,0.07666,0.943115,-2.312977,-4.022901,-1.908397
845184109.0,0.12793,0.077148,0.941895,-2.076336,-4.091603,-1.778626
845195970.0,0.125732,0.084717,0.946045,-2.183206,-4.08397,-1.763359
845207833.0,0.120117,0.083008,0.944824,-2.076336,-3.870229,-1.877863
845219706.0,0.125977,0.083496,0.959229,-2.114504,-4.007634,-1.755725
845231574.0,0.118652,0.083984,0.947266,-2.076336,-4.633588,-1.977099
845243438.0,0.126221,0.078857,0.946777,-2.175573,-3.885496,-2.137405
845255310.0,0.122314,0.083008,0.963867,-2.007634,-3.89313,-2.038168
845267180.0,0.119873,0.078369,0.944336,-2.21374,-4.732824,-2.038168
845279047.0,0.120361,0.078369,0.937012,-2.122137,-4.419847,-2.10687
845290905.0,0.122803,0.083496,0.949707,-1.938931,-3.89313,-1.900763
845302769.0,0.124756,0.079346,0.948242,-2.206107,-3.977099,-1.946565
845314643.0,0.119629,0.079834,0.950439,-2.045802,-4.419847,-1.900763
845326508.0,0.125732,0.081299,0.953613,-2.083969,-4.480916,-1.908397
845338374.0,0.121582,0.078125,0.95752,-1.977099,-4.007634,-1.89313
845350245.0,0.121826,0.08667,0.944824,-2.0,-4.015267,-2.022901
845362109.0,0.123779,0.078613,0.954102,-2.19084,-4.564886,-1.931298
845373972.0,0.124512,0.080322,0.942139,-2.160305,-4.282443,-1.923664
845385836.0,0.121826,0.078125,0.940186,-2.221374,-3.870229,-2.129771
845397708.0,0.124023,0.077881,0.952393,-2.068702,-4.022901,-1.885496
845409578.0,0.122314,0.079834,0.94873,-1.954198,-4.29771,-1.862595
845421447.0,0.121826,0.079102,0.934814,-2.022901,-4.312977,-1.847328
845433317.0,0.112793,0.080078,0.955078,-1.916031,-3.969466,-1.946565
845445190.0,0.120605,0.079346,0.943848,-2.061069,-4.290076,-1.946565
845457048.0,0.127441,0.078613,0.950195,-1.877863,-4.221374,-1.862595
845468908.0,0.12207,0.076904,0.944092,-2.122137,-4.099236,-2.076336
845480772.0,0.114014,0.084229,0.944092,-1.984733,-4.122138,-2.045802
845492642.0,0.123535,0.077393,0.95166,-2.083969,-4.045802,-1.885496
845504507.0,0.123291,0.077148,0.945068,-2.160305,-4.183206,-1.931298
845516373.0,0.118896,0.075439,0.94873,-2.10687,-4.076336,-1.885496
845528245.0,0.122559,0.081299,0.941162,-2.045802,-4.068702,-1.946565
845540109.0,0.116943,0.080078,0.943359,-2.114504,-3.969466,-2.053435
845551970.0,0.119141,0.077637,0.939453,-2.19084,-4.061069,-1.832061
845563833.0,0.121582,0.077393,0.950928,-2.007634,-4.19084,-1.885496
845575708.0,0.120361,0.077637,0.949707,-2.083969,-4.160306,-1.885496
845587574.0,0.124512,0.078369,0.934326,-2.152672,-4.152672,-1.961832
845599439.0,0.117188,0.075928,0.941406,-2.083969,-3.984733,-2.007634
845611313.0,0.123291,0.078369,0.952881,-2.206107,-4.10687,-1.832061
845623188.0,0.122559,0.080078,0.954346,-1.931298,-4.274809,-1.916031
845635048.0,0.115479,0.078613,0.956055,-2.10687,-3.89313,-1.801527
845646912.0,0.12207,0.081299,0.944336,-1.969466,-4.259542,-1.770992
845658779.0,0.125977,0.080811,0.940918,-2.259542,-4.267176,-1.793893
845670643.0,0.116699,0.081787,0.949463,-2.0,-4.160306,-1.854962
845682508.0,0.119385,0.082764,0.958008,-2.198473,-4.045802,-1.801527
845694373.0,0.125488,0.074219,0.947021,-2.015267,-4.145038,-2.175573
845706245.0,0.123047,0.08252,0.956299,-2.030534,-3.984733,-1.870229
845718109.0,0.11792,0.077881,0.948486,-1.984733,-4.198473,-1.847328
845729972.0,0.12085,0.085449,0.95166,-2.061069,-3.946565,-1.900763
845741835.0,0.124023,0.074463,0.946777,-1.938931,-4.114504,-1.839695
845753708.0,0.119141,0.07373,0.940918,-1.977099,-4.145038,-1.946565
845765579.0,0.120605,0.081543,0.944092,-2.167939,-4.21374,-1.793893
845777448.0,0.115967,0.080811,0.947754,-1.916031,-4.244275,-2.053435
845789329.0,0.118652,0.081543,0.947266,-1.977099,-4.19084,-1.900763
845801196.0,0.119385,0.079346,0.946045,-2.114504,-4.236641,-1.885496
845813059.0,0.119629,0.080811,0.940674,-2.076336,-4.167939,-2.022901
845824922.0,0.115723,0.08252,0.949463,-1.961832,-4.358778,-1.908397
845836796.0,0.125977,0.074951,0.939209,-2.129771,-4.030534,-2.122137
845848662.0,0.123291,0.081055,0.945557,-2.10687,-3.984733,-1.839695
845860539.0,0.115234,0.08252,0.945312,-2.045802,-4.229008,-1.900763
845872417.0,0.124756,0.084473,0.94751,-2.137405,-4.374046,-1.885496
845884292.0,0.127441,0.077881,0.946045,-2.10687,-4.389313,-2.083969
845896170.0,0.12207,0.080078,0.945557,-2.129771,-3.770992,-1.854962
845908039.0,0.124023,0.080811,0.948975,-2.061069,-3.954198,-2.061069
845919901.0,0.118652,0.081299,0.950195,-2.160305,-4.290076,-2.068702
845931771.0,0.12207,0.074707,0.945557,-2.091603,-4.389313,-2.091603
845943643.0,0.123779,0.084229,0.948486,-2.259542,-4.160306,-2.045802
845955508.0,0.123535,0.079102,0.952393,-2.083969,-4.022901,-1.916031
845967373.0,0.119141,0.080322,0.947266,-2.152672,-4.343512,-1.969466
845979245.0,0.123291,0.072998,0.948486,-2.045802,-4.19084,-1.992366
845991109.0,0.124023,0.079102,0.943359,-2.129771,-4.351145,-2.099237
846002972.0,0.125,0.080078,0.941895,-2.114504,-4.091603,-1.770992
846014835.0,0.121582,0.078613,0.947998,-2.099237,-4.137404,-1.984733
846026707.0,0.121338,0.075928,0.949219,-2.083969,-4.290076,-1.870229
846038579.0,0.118652,0.083496,0.94043,-2.0,-4.236641,-1.916031
846050444.0,0.121338,0.076416,0.942871,-2.076336,-4.038168,-1.977099
846062313.0,0.120361,0.071533,0.956055,-2.160305,-4.412214,-1.793893
846074181.0,0.127441,0.077637,0.95166,-2.129771,-4.274809,-1.954198
846086044.0,0.125732,0.083984,0.939209,-2.061069,-4.290076,-1.78626
846097905.0,0.125244,0.07959,0.944092,-2.145038,-4.167939,-1.900763
846109770.0,0.120605,0.078369,0.95166,-2.091603,-4.160306,-1.80916
846121643.0,0.12207,0.080566,0.94873,-1.832061,-4.122138,-1.984733
846133509.0,0.126465,0.079102,0.950684,-2.091603,-4.21374,-2.045802
846145373.0,0.119141,0.088867,0.943359,-2.091603,-4.473282,-1.992366
846157248.0,0.118652,0.079346,0.954102,-1.984733,-4.320611,-1.832061
846169115.0,0.122314,0.08252,0.95459,-2.129771,-4.259542,-1.877863
846180977.0,0.121338,0.081787,0.945557,-2.183206,-4.305344,-2.015267
846192839.0,0.121338,0.086426,0.95459,-1.931298,-4.290076,-1.938931
846204711.0,0.126953,0.082764,0.945312,-1.916031,-4.328244,-1.885496
846216579.0,0.122559,0.080811,0.94458,-2.068702,-4.045802,-2.114504
846228443.0,0.127197,0.088379,0.950439,-2.007634,-4.351145,-1.908397
846240313.0,0.117676,0.079102,0.953613,-2.10687,-4.21374,-1.900763
846252188.0,0.12085,0.082031,0.952637,-1.992366,-4.122138,-1.877863
846264048.0,0.123291,0.081543,0.943604,-2.328244,-4.114504,-1.900763
846275907.0,0.126465,0.080811,0.949219,-2.229008,-3.954198,-1.916031
846287772.0,0.119385,0.085449,0.942871,-1.938931,-4.480916,-1.89313
846299642.0,0.120117,0.082764,0.952148,-2.053435,-4.030534,-1.824427
846311508.0,0.126221,0.07666,0.950439,-2.114504,-4.366412,-1.877863
846323374.0,0.118896,0.074707,0.94458,-2.099237,-4.274809,-1.832061
846335245.0,0.125977,0.084473,0.948486,-2.053435,-4.29771,-2.038168
846347109.0,0.123535,0.078613,0.947754,-2.160305,-4.206107,-1.89313
846358970.0,0.121826,0.081299,0.946045,-2.10687,-4.320611,-1.694656
846370833.0,0.119141,0.08252,0.947021,-2.030534,-4.335878,-2.022901
846382708.0,0.118652,0.080566,0.943848,-1.992366,-4.480916,-1.763359
846394574.0,0.125,0.084229,0.934814,-2.061069,-4.435114,-1.862595
846406438.0,0.123535,0.078857,0.936035,-1.961832,-3.961832,-1.954198
846418310.0,0.127197,0.080078,0.958252,-2.114504,-4.435114,-1.877863
846430181.0,0.119141,0.078613,0.947266,-2.251908,-4.633588,-1.946565
846442047.0,0.123291,0.079102,0.945557,-1.938931,-4.198473,-2.0
846453905.0,0.124512,0.081787,0.941895,-2.145038,-3.870229,-1.854962
846465771.0,0.116455,0.077881,0.949951,-1.885496,-4.099236,-1.78626
846477643.0,0.132812,0.080811,0.934326,-2.0,-4.366412,-1.946565
846489509.0,0.12207,0.07959,0.940674,-1.931298,-4.458015,-2.053435
846501373.0,0.123779,0.083984,0.960693,-2.259542,-4.480916,-2.0
846513244.0,0.125,0.079346,0.945557,-2.129771,-4.053435,-2.030534
846525109.0,0.118652,0.081543,0.949951,-2.030534,-4.19084,-1.839695
846536970.0,0.124756,0.078369,0.947754,-1.931298,-3.977099,-1.89313
846548835.0,0.121826,0.080322,0.956299,-2.122137,-4.328244,-1.946565
846560708.0,0.121826,0.075439,0.948486,-2.030534,-4.267176,-1.778626
846572579.0,0.127197,0.079834,0.937256,-2.053435,-4.412214,-1.946565
846584447.0,0.122314,0.075439,0.952637,-2.083969,-4.129771,-1.946565
846596330.0,0.120605,0.083496,0.947021,-2.068702,-4.091603,-1.977099
846608196.0,0.12085,0.084717,0.961914,-1.938931,-4.351145,-1.824427
846620063.0,0.127686,0.077148,0.949707,-2.198473,-4.045802,-2.022901
846631933.0,0.121582,0.077637,0.943848,-1.847328,-4.099236,-1.916031
846643814.0,0.122314,0.078613,0.952881,-2.007634,-4.152672,-1.832061
846655692.0,0.119873,0.084473,0.942871,-1.977099,-4.229008,-1.877863
846667568.0,0.120117,0.080811,0.948486,-1.916031,-4.053435,-1.671756
846679435.0,0.119873,0.075928,0.950928,-2.068702,-4.099236,-1.778626
846691308.0,0.119385,0.082031,0.941406,-1.80916,-4.328244,-1.992366
846703180.0,0.121582,0.080566,0.940186,-2.015267,-4.030534,-1.801527
846715047.0,0.128906,0.085449,0.943604,-2.068702,-4.267176,-2.015267
846726905.0,0.124512,0.081299,0.947754,-2.29771,-4.045802,-1.923664
846738771.0,0.127197,0.082764,0.952881,-2.10687,-4.061069,-1.954198
846750643.0,0.121338,0.084229,0.952148,-2.122137,-4.145038,-2.167939
846762508.0,0.120117,0.084717,0.947266,-2.114504,-4.015267,-1.763359
846774376.0,0.123047,0.082031,0.942139,-2.320611,-4.038168,-1.916031
846786249.0,0.12085,0.079834,0.942139,-2.137405,-4.030534,-1.854962
846798110.0,0.121094,0.079102,0.94165,-2.076336,-4.137404,-1.908397
846809970.0,0.123291,0.081543,0.948486,-2.0,-4.160306,-1.839695
846821833.0,0.126221,0.075195,0.94751,-2.083969,-3.908397,-1.763359
846833708.0,0.124023,0.079346,0.95166,-2.007634,-4.458015,-1.801527
846845578.0,0.118652,0.089355,0.946533,-2.206107,-4.152672,-2.045802
846857447.0,0.123535,0.081543,0.949219,-1.977099,-4.335878,-2.015267
846869317.0,0.124023,0.081299,0.945068,-2.099237,-4.007634,-1.969466
846881191.0,0.116943,0.080078,0.94043,-2.030534,-4.343512,-1.916031
846893052.0,0.125488,0.083496,0.953369,-2.229008,-4.183206,-1.946565
846904913.0,0.122803,0.080811,0.94458,-2.068702,-4.114504,-1.832061
846916778.0,0.122314,0.080322,0.956055,-1.992366,-4.259542,-1.89313
846928649.0,0.127686,0.082764,0.946777,-2.236641,-4.068702,-1.885496
846940514.0,0.120117,0.078613,0.940186,-2.19084,-3.923664,-1.801527
846952380.0,0.113037,0.078857,0.94751,-2.122137,-4.145038,-1.862595
846964249.0,0.12085,0.075195,0.947021,-2.282443,-4.129771,-1.938931
846976118.0,0.125,0.078857,0.954102,-2.0,-4.236641,-2.007634
846987973.0,0.122803,0.08252,0.949219,-2.221374,-4.229008,-1.862595
846999836.0,0.125488,0.079834,0.949463,-2.015267,-4.38168,-1.916031
847011710.0,0.120117,0.081055,0.950195,-2.267176,-4.29771,-2.038168
847023579.0,0.119385,0.07666,0.949707,-2.229008,-4.442748,-1.801527
847035444.0,0.121338,0.077393,0.953125,-2.114504,-4.358778,-1.938931
847047313.0,0.115479,0.081787,0.940186,-2.10687,-4.030534,-1.847328
847059188.0,0.122803,0.075439,0.953613,-2.076336,-4.412214,-2.030534
847071048.0,0.116699,0.086914,0.944824,-1.847328,-4.465649,-2.061069
847082910.0,0.119873,0.08252,0.949463,-2.137405,-4.526718,-1.877863
847094776.0,0.120117,0.082031,0.953125,-2.137405,-4.717557,-1.938931
847106643.0,0.121338,0.07666,0.952881,-2.091603,-4.198473,-1.877863
847118507.0,0.123779,0.077393,0.943604,-1.984733,-4.305344,-2.038168
847130374.0,0.117676,0.081543,0.945557,-2.030534,-4.259542,-1.931298
847142249.0,0.118408,0.081299,0.94165,-2.259542,-4.572519,-2.038168
847154115.0,0.129639,0.084961,0.946289,-2.145038,-4.305344,-1.992366
847165975.0,0.121094,0.089355,0.945068,-2.152672,-4.442748,-1.862595
847177839.0,0.123291,0.089844,0.940674,-2.29771,-4.435114,-2.0
847189708.0,0.118164,0.078125,0.944336,-2.267176,-4.358778,-1.755725
847201574.0,0.12085,0.08252,0.950928,-1.961832,-4.435114,-1.862595
847213438.0,0.125,0.078125,0.942383,-2.145038,-4.312977,-1.778626
847225310.0,0.126465,0.08374,0.94751,-2.038168,-4.70229,-1.885496
847237180.0,0.124023,0.078125,0.949219,-1.984733,-4.450382,-1.801527
847249047.0,0.127197,0.080811,0.941895,-2.312977,-4.274809,-2.122137
847260908.0,0.126221,0.084717,0.949463,-2.167939,-4.572519,-2.061069
847272777.0,0.123535,0.077881,0.947998,-2.076336,-4.534351,-1.916031
847284649.0,0.125488,0.080078,0.944092,-1.984733,-4.572519,-2.015267
847296514.0,0.119873,0.08252,0.95166,-2.229008,-4.70229,-1.847328
847308376.0,0.126953,0.08252,0.955322,-2.175573,-4.389313,-1.908397
847320249.0,0.119141,0.080322,0.951172,-2.015267,-4.312977,-1.603053
847332118.0,0.126221,0.078613,0.943848,-2.122137,-4.465649,-1.923664
847343978.0,0.119873,0.084961,0.947266,-2.114504,-4.458015,-1.839695
847355839.0,0.118652,0.079102,0.949463,-2.129771,-4.221374,-1.816794
847367711.0,0.119385,0.075684,0.953369,-2.068702,-4.358778,-1.801527
847379579.0,0.124023,0.081299,0.944336,-2.236641,-4.480916,-2.091603
847391444.0,0.126953,0.077393,0.946533,-1.961832,-4.229008,-1.725191
847403313.0,0.120361,0.081055,0.942627,-1.954198,-4.229008,-1.832061
847415182.0,0.124268,0.07959,0.942139,-1.954198,-4.328244,-1.946565
847427047.0,0.125732,0.079834,0.959229,-2.114504,-4.465649,-1.938931
847438906.0,0.128662,0.085693,0.939453,-2.007634,-4.312977,-2.0
847450770.0,0.124756,0.083008,0.955078,-2.030534,-4.251908,-1.816794
847462643.0,0.118652,0.078613,0.940186,-2.129771,-4.374046,-1.954198
847474509.0,0.12207,0.079102,0.952148,-1.969466,-4.175572,-1.755725
847486375.0,0.122559,0.07959,0.95459,-2.221374,-4.08397,-1.870229
847498248.0,0.123291,0.082764,0.939209,-2.274809,-4.183206,-1.885496
847510109.0,0.127686,0.083252,0.939209,-2.068702,-4.236641,-1.854962
847521970.0,0.123535,0.084961,0.948242,-2.091603,-4.419847,-1.748092
847533833.0,0.124512,0.077393,0.940918,-1.992366,-4.389313,-1.877863
847545707.0,0.120605,0.081787,0.942383,-2.122137,-4.419847,-1.854962
847557579.0,0.12793,0.076904,0.944092,-2.114504,-4.290076,-1.916031
847569444.0,0.125244,0.077881,0.949463,-2.015267,-4.259542,-1.862595
847581313.0,0.121582,0.078369,0.953613,-1.824427,-4.206107,-1.870229
847593191.0,0.125,0.079834,0.943359,-2.274809,-4.145038,-1.877863
847605058.0,0.129395,0.076416,0.943848,-2.061069,-4.335878,-1.908397
847616916.0,0.123779,0.083008,0.954346,-2.122137,-4.229008,-1.923664
847628781.0,0.124512,0.076904,0.950439,-2.022901,-4.007634,-1.725191
847640649.0,0.121582,0.080322,0.954346,-2.175573,-4.10687,-1.763359
847652513.0,0.120361,0.082031,0.946533,-2.10687,-4.160306,-1.793893
847664376.0,0.126709,0.083496,0.944824,-2.091603,-4.328244,-1.938931
847676248.0,0.124023,0.073242,0.960937,-2.061069,-4.022901,-1.793893
847688109.0,0.123779,0.078613,0.947021,-2.167939,-3.931298,-1.908397
847699970.0,0.120117,0.08374,0.943604,-2.236641,-3.89313,-1.900763
847711833.0,0.122559,0.07666,0.946533,-2.038168,-4.152672,-1.961832
847723707.0,0.127686,0.076172,0.95166,-2.206107,-3.961832,-1.832061
847735579.0,0.118652,0.082764,0.94751,-1.992366,-4.038168,-1.793893
847747447.0,0.122559,0.077393,0.952148,-2.244275,-4.274809,-1.793893
847759317.0,0.124756,0.08252,0.956055,-1.946565,-4.206107,-1.801527
847771190.0,0.120605,0.082275,0.938721,-2.206107,-3.984733,-2.007634
847783050.0,0.128174,0.071533,0.947021,-2.167939,-4.305344,-1.801527
847794909.0,0.116699,0.077148,0.948975,-2.160305,-3.923664,-1.854962
847806778.0,0.125,0.088135,0.941162,-2.129771,-4.465649,-1.770992
847818643.0,0.123047,0.083984,0.950684,-2.053435,-3.946565,-1.80916
847830507.0,0.122559,0.074707,0.931885,-2.030534,-3.954198,-1.89313
847842375.0,0.124023,0.075928,0.961914,-1.931298,-4.343512,-1.832061
847854246.0,0.123779,0.085449,0.950684,-2.083969,-4.145038,-2.038168
847866109.0,0.118652,0.083252,0.949219,-2.267176,-4.274809,-1.824427
847877970.0,0.120361,0.080322,0.946289,-1.900763,-3.694656,-1.732824
847889833.0,0.115479,0.080322,0.958252,-2.068702,-4.351145,-1.78626
847901709.0,0.121338,0.074707,0.950928,-2.251908,-4.419847,-1.984733
847913579.0,0.120605,0.082031,0.947021,-2.045802,-4.145038,-1.648855
847925444.0,0.122803,0.074951,0.947754,-2.129771,-4.21374,-1.885496
847937313.0,0.120117,0.081543,0.946533,-1.946565,-3.885496,-1.923664
847949190.0,0.126709,0.082031,0.960693,-1.969466,-4.10687,-2.099237
847961057.0,0.126709,0.080811,0.945801,-1.984733,-4.114504,-2.007634
847972916.0,0.129883,0.080078,0.940186,-2.19084,-4.137404,-1.992366
847984781.0,0.118408,0.080566,0.943848,-2.0,-4.015267,-1.89313
847996650.0,0.123291,0.081055,0.946045,-2.099237,-4.045802,-1.725191
848008516.0,0.123291,0.076172,0.943604,-2.091603,-4.465649,-1.694656
848020386.0,0.122559,0.080078,0.94873,-1.954198,-3.854962,-1.885496
848032262.0,0.121826,0.081787,0.950195,-2.022901,-3.770992,-1.89313
848044136.0,0.127197,0.078857,0.944336,-2.007634,-4.244275,-1.984733
848056011.0,0.125488,0.079834,0.949219,-2.137405,-4.198473,-1.870229
848067886.0,0.124023,0.077393,0.943848,-2.061069,-4.10687,-1.984733
848079763.0,0.125977,0.079834,0.947998,-1.961832,-4.015267,-1.900763
848091633.0,0.122559,0.0896,0.943848,-1.923664,-4.21374,-1.832061
848103504.0,0.122803,0.07959,0.950195,-2.167939,-4.183206,-1.877863
848115369.0,0.123779,0.079834,0.951172,-2.045802,-4.251908,-1.923664
848127243.0,0.123779,0.083496,0.955322,-2.091603,-4.274809,-1.816794
848139109.0,0.119873,0.080566,0.947754,-2.251908,-4.175572,-1.946565
848150970.0,0.129395,0.077393,0.945557,-2.015267,-4.389313,-1.931298
848162833.0,0.124756,0.079102,0.943359,-2.351145,-3.793893,-1.824427
848174706.0,0.116943,0.081543,0.953125,-1.908397,-4.099236,-1.816794
848186574.0,0.120361,0.079102,0.943359,-2.022901,-4.442748,-1.801527
848198438.0,0.124512,0.079834,0.942627,-2.068702,-4.259542,-1.969466
848210310.0,0.119385,0.076416,0.951904,-1.938931,-4.198473,-1.946565
848222180.0,0.116699,0.077148,0.94873,-2.038168,-4.244275,-2.053435
848234044.0,0.121338,0.077393,0.950928,-1.992366,-4.10687,-1.854962
848245906.0,0.128174,0.079346,0.954102,-2.091603,-4.320611,-1.908397
848257770.0,0.119873,0.073975,0.948975,-1.946565,-3.847328,-1.938931
848269642.0,0.120361,0.082031,0.950928,-2.267176,-4.160306,-1.824427
848281510.0,0.126221,0.075928,0.947266,-2.007634,-4.183206,-1.908397
848293375.0,0.122559,0.08252,0.939453,-2.015267,-4.022901,-1.923664
848305249.0,0.122559,0.076172,0.95166,-2.068702,-4.061069,-1.801527
848317118.0,0.123535,0.082031,0.946777,-2.259542,-3.938931,-1.770992
848328978.0,0.121338,0.080811,0.945801,-2.045802,-4.091603,-1.885496
848340839.0,0.119141,0.078125,0.939453,-1.969466,-3.977099,-1.679389
848352711.0,0.126221,0.075439,0.94873,-2.076336,-4.29771,-1.908397
848364579.0,0.118652,0.078369,0.948486,-1.992366,-4.312977,-1.78626
848376446.0,0.119873,0.075439,0.942383,-2.183206,-4.022901,-1.908397
848388318.0,0.126709,0.082275,0.951172,-1.984733,-4.29771,-1.824427
848400190.0,0.121826,0.075684,0.944336,-2.083969,-4.198473,-1.938931
848412058.0,0.127197,0.078125,0.945068,-1.908397,-4.221374,-1.938931
848423917.0,0.116943,0.08667,0.943115,-2.061069,-4.160306,-1.839695
848435784.0,0.123535,0.081543,0.947998,-2.175573,-4.129771,-1.877863
848447652.0,0.124756,0.083252,0.950439,-2.099237,-4.412214,-2.030534
848459517.0,0.118652,0.07666,0.948242,-1.923664,-4.030534,-2.038168
848471386.0,0.119385,0.077637,0.94751,-1.984733,-4.244275,-1.877863
848483262.0,0.117676,0.074219,0.949707,-1.961832,-4.08397,-1.870229
848495136.0,0.126221,0.079834,0.947754,-1.839695,-4.282443,-1.946565
848507011.0,0.125,0.079834,0.943604,-2.290076,-4.282443,-1.854962
848518893.0,0.121338,0.07666,0.938477,-2.114504,-4.152672,-1.885496
848530764.0,0.130615,0.078125,0.951172,-2.152672,-4.145038,-2.038168
848542635.0,0.122803,0.081299,0.950195,-2.091603,-4.10687,-2.083969
848554504.0,0.123047,0.08374,0.958496,-2.099237,-4.312977,-1.687023
848566369.0,0.12207,0.084717,0.94873,-1.961832,-3.862595,-1.78626
848578244.0,0.118896,0.079346,0.945557,-2.236641,-4.175572,-2.030534
848590109.0,0.128418,0.080322,0.945312,-1.847328,-4.709924,-2.0
848601970.0,0.11084,0.071777,0.948486,-1.870229,-3.755725,-1.89313
848613833.0,0.149902,0.08667,0.949707,-2.267176,-3.664122,-1.80916
848625706.0,0.109619,0.074219,0.943359,-1.89313,-5.290076,-1.931298
848637574.0,0.121094,0.086914,0.933594,-1.847328,-3.236641,-1.748092
848649438.0,0.126465,0.081543,0.953125,-2.091603,-4.801527,-2.038168
848661312.0,0.118896,0.080322,0.958252,-1.992366,-3.839695,-1.931298
848673190.0,0.126953,0.074463,0.953125,-1.824427,-4.351145,-1.687023
848685057.0,0.117676,0.084717,0.945068,-2.335878,-4.396946,-2.045802
848696915.0,0.130859,0.077881,0.936523,-2.29771,-4.282443,-1.961832
848708780.0,0.114502,0.077637,0.953857,-2.160305,-3.763359,-1.900763
848720649.0,0.123779,0.086426,0.956055,-2.335878,-4.19084,-1.916031
848732515.0,0.115479,0.078613,0.936035,-2.068702,-4.763359,-1.885496
848744381.0,0.128174,0.075195,0.941895,-2.076336,-3.755725,-1.78626
848756250.0,0.129639,0.087891,0.953857,-2.198473,-4.244275,-1.923664
848768117.0,0.11792,0.078369,0.944092,-1.977099,-4.221374,-2.015267
848779975.0,0.127441,0.07959,0.941406,-2.244275,-4.320611,-1.923664
848791840.0,0.122803,0.077881,0.950928,-2.068702,-4.114504,-2.053435
848803711.0,0.124023,0.073486,0.951416,-1.992366,-4.007634,-2.015267
848815574.0,0.121826,0.071533,0.949219,-2.145038,-4.854962,-1.977099
848827438.0,0.124023,0.077393,0.947021,-2.221374,-3.870229,-1.870229
848839310.0,0.123291,0.08667,0.952148,-2.022901,-3.687023,-1.923664
848851182.0,0.121582,0.078857,0.952148,-1.89313,-4.580153,-1.862595
848863047.0,0.125488,0.077393,0.944092,-2.198473,-4.458015,-1.832061
848874908.0,0.134277,0.072998,0.947998,-2.137405,-3.931298,-1.969466
848886777.0,0.121338,0.080322,0.957764,-2.083969,-3.916031,-1.816794
848898644.0,0.126465,0.075684,0.956055,-2.007634,-4.198473,-2.0
848910509.0,0.128174,0.078125,0.953857,-2.244275,-4.274809,-1.862595
848922375.0,0.121826,0.083008,0.952148,-2.122137,-3.923664,-1.740458
848934249.0,0.120605,0.077393,0.948242,-2.076336,-4.229008,-1.89313
848946109.0,0.125244,0.080811,0.94458,-2.229008,-4.267176,-1.938931
848957970.0,0.120361,0.083496,0.961182,-2.0,-4.015267,-1.870229
848969833.0,0.125488,0.081055,0.957031,-2.030534,-3.89313,-1.916031
848981706.0,0.120605,0.084473,0.947754,-2.145038,-4.458015,-1.709924
848993574.0,0.123779,0.078857,0.949951,-2.061069,-4.343512,-1.908397
849005438.0,0.122803,0.079346,0.938721,-2.129771,-3.908397,-2.015267
849017309.0,0.124512,0.086426,0.955078,-2.145038,-4.29771,-1.847328
849029182.0,0.124512,0.083496,0.947754,-2.29771,-4.274809,-1.961832
849041047.0,0.129883,0.081543,0.946289,-1.961832,-3.992366,-1.793893
849052907.0,0.124512,0.081299,0.949219,-2.122137,-4.061069,-1.832061
849064772.0,0.119629,0.081787,0.954346,-2.076336,-4.114504,-1.839695
849076643.0,0.126465,0.077637,0.94165,-2.076336,-4.38168,-1.984733
849088507.0,0.123291,0.080078,0.939941,-2.129771,-3.832061,-1.931298
849100373.0,0.124268,0.082764,0.955322,-1.923664,-4.244275,-2.045802
849112249.0,0.118652,0.076172,0.940918,-1.984733,-4.137404,-1.847328
849124115.0,0.121826,0.082764,0.938477,-2.053435,-4.328244,-1.969466
849135974.0,0.125,0.076172,0.952637,-2.122137,-3.816794,-1.801527
849147840.0,0.124023,0.082764,0.955566,-2.099237,-3.992366,-1.709924
849159716.0,0.12085,0.080322,0.952393,-2.099237,-4.610687,-1.900763
849171581.0,0.125732,0.075195,0.94165,-2.091603,-3.977099,-2.129771
849183446.0,0.122803,0.078613,0.950195,-2.198473,-3.908397,-1.70229
849195317.0,0.115479,0.082764,0.948975,-2.015267,-4.435114,-1.847328
849207190.0,0.124023,0.082764,0.936035,-1.977099,-4.198473,-1.862595
849219058.0,0.124756,0.077148,0.947266,-2.137405,-4.21374,-1.870229
849230916.0,0.120361,0.078857,0.952637,-2.137405,-4.08397,-1.870229
849242780.0,0.121582,0.078369,0.948486,-2.129771,-4.221374,-1.877863
849254650.0,0.121582,0.074707,0.953125,-2.229008,-4.458015,-1.984733
849266516.0,0.125488,0.083984,0.942383,-2.099237,-4.152672,-1.89313
849278386.0,0.128174,0.077393,0.948975,-2.091603,-4.206107,-1.946565
849290261.0,0.124023,0.080078,0.943848,-2.221374,-4.396946,-2.045802
849302128.0,0.12207,0.077393,0.941895,-1.969466,-4.099236,-1.923664
849313987.0,0.125244,0.075684,0.944824,-1.870229,-4.015267,-1.931298
849325852.0,0.117188,0.080566,0.946777,-2.152672,-4.152672,-1.923664
849337722.0,0.12793,0.080811,0.951416,-2.022901,-4.022901,-1.862595
849349592.0,0.126221,0.083252,0.951904,-2.274809,-4.137404,-1.671756
849361468.0,0.122803,0.081787,0.947021,-2.091603,-4.366412,-1.732824
849373340.0,0.124756,0.084717,0.943848,-1.870229,-4.21374,-1.870229
849385223.0,0.12915,0.078369,0.947021,-2.053435,-4.152672,-2.0
849397098.0,0.122803,0.07666,0.949707,-2.10687,-4.198473,-1.778626
849408969.0,0.12915,0.087646,0.95459,-2.183206,-4.068702,-1.916031
849420833.0,0.118896,0.076172,0.946045,-2.007634,-4.229008,-1.854962
849432706.0,0.126221,0.086182,0.943115,-2.366412,-4.137404,-1.824427
849444574.0,0.128662,0.080811,0.938965,-2.038168,-4.114504,-1.954198
849456438.0,0.117676,0.074951,0.957275,-2.099237,-4.366412,-1.778626
849468310.0,0.12085,0.080322,0.940918,-2.022901,-4.19084,-1.793893
849480180.0,0.118164,0.079102,0.954834,-2.10687,-4.175572,-1.862595
849492047.0,0.11792,0.077637,0.943848,-2.320611,-4.10687,-1.931298
849503906.0,0.120605,0.081299,0.954346,-1.977099,-4.259542,-1.847328
849515771.0,0.125,0.076172,0.951416,-2.099237,-4.129771,-1.961832
849527643.0,0.122803,0.079102,0.954102,-1.946565,-4.08397,-1.916031
849539508.0,0.120605,0.085937,0.948486,-2.167939,-4.068702,-1.847328
849551373.0,0.122559,0.082764,0.946045,-2.015267,-3.977099,-1.900763
849563245.0,0.12207,0.082764,0.945557,-1.961832,-4.221374,-1.923664
849575109.0,0.124023,0.080566,0.946289,-1.977099,-4.076336,-1.992366
849586973.0,0.119629,0.081299,0.958008,-2.21374,-4.206107,-2.022901
849598835.0,0.125732,0.08252,0.953369,-2.061069,-4.259542,-1.816794
849610707.0,0.128906,0.080078,0.946045,-2.114504,-4.251908,-1.916031
849622574.0,0.123047,0.078125,0.95166,-2.083969,-4.251908,-1.625954
849634438.0,0.127441,0.086182,0.956787,-2.129771,-4.229008,-1.832061
849646310.0,0.126221,0.084961,0.941895,-2.152672,-4.282443,-1.992366
849658181.0,0.124756,0.080322,0.945557,-2.007634,-4.343512,-1.832061
849670047.0,0.124023,0.076172,0.94873,-2.160305,-4.137404,-1.931298
849681905.0,0.123047,0.06958,0.952148,-2.152672,-4.08397,-1.862595
849693771.0,0.125732,0.07959,0.942871,-2.030534,-4.274809,-2.0
849705642.0,0.116455,0.081787,0.952637,-2.061069,-4.183206,-1.916031
849717507.0,0.12207,0.07959,0.952393,-2.183206,-4.167939,-1.862595
849729375.0,0.123779,0.078369,0.944824,-2.091603,-4.160306,-1.946565
849741249.0,0.119141,0.078857,0.940186,-2.091603,-4.419847,-2.244275
849753109.0,0.122803,0.083496,0.954346,-2.076336,-4.068702,-1.969466
849764970.0,0.124023,0.083496,0.949463,-2.114504,-4.267176,-1.801527
849776833.0,0.11792,0.079834,0.953857,-1.969466,-4.244275,-1.969466
849788707.0,0.117676,0.077393,0.944336,-1.969466,-4.366412,-1.923664
849800574.0,0.116455,0.080078,0.949463,-2.045802,-4.19084,-1.732824
849812438.0,0.126709,0.081299,0.94043,-2.038168,-4.343512,-1.946565
849824312.0,0.123047,0.079346,0.953857,-2.061069,-4.519084,-1.954198
849836182.0,0.124268,0.080322,0.950928,-2.167939,-4.328244,-2.053435
849848047.0,0.118164,0.082031,0.940674,-2.122137,-4.38168,-1.938931
849859907.0,0.116455,0.075928,0.949707,-2.045802,-4.351145,-1.78626
849871772.0,0.12793,0.077881,0.945801,-2.114504,-4.328244,-1.900763
849883642.0,0.121338,0.08374,0.94043,-1.977099,-4.251908,-1.641221
849895507.0,0.125488,0.078125,0.945801,-2.007634,-4.160306,-1.763359
849907372.0,0.129395,0.07959,0.938721,-2.152672,-4.366412,-1.923664
849919245.0,0.120117,0.078613,0.94751,-2.007634,-4.167939,-1.824427
849931109.0,0.124512,0.083984,0.944824,-2.21374,-4.328244,-2.083969
849942970.0,0.118896,0.079346,0.943848,-2.206107,-4.549618,-1.824427
849954833.0,0.126221,0.081543,0.947266,-2.099237,-4.274809,-1.854962
849966706.0,0.121826,0.081299,0.956299,-1.992366,-4.160306,-1.832061
849978578.0,0.128174,0.081543,0.953369,-2.145038,-4.206107,-1.900763
849990444.0,0.126953,0.081055,0.953125,-2.0,-4.198473,-2.053435
850002312.0,0.128418,0.080566,0.946533,-2.022901,-4.427481,-1.977099
850014188.0,0.126221,0.081055,0.947021,-2.045802,-4.229008,-1.854962
850026048.0,0.116699,0.077881,0.946289,-2.076336,-4.160306,-1.900763
850037909.0,0.133789,0.078369,0.953369,-2.320611,-4.320611,-1.877863
850049778.0,0.119629,0.081055,0.947021,-1.984733,-4.145038,-1.847328
850061650.0,0.119873,0.074707,0.947998,-2.21374,-4.236641,-1.793893
850073515.0,0.124756,0.081299,0.951416,-2.122137,-3.992366,-1.908397
850085386.0,0.126465,0.079102,0.940674,-2.045802,-4.427481,-1.854962
850097261.0,0.124023,0.078613,0.947266,-2.099237,-4.10687,-1.839695
850109136.0,0.123535,0.077393,0.941895,-2.0,-4.351145,-1.862595
850121011.0,0.120605,0.079346,0.943359,-1.969466,-4.236641,-2.038168
850132885.0,0.121582,0.088379,0.952148,-2.145038,-4.305344,-2.114504
850144763.0,0.130371,0.080566,0.94873,-2.129771,-4.38168,-1.908397
850156633.0,0.124268,0.080078,0.940186,-1.977099,-4.122138,-2.030534
850168503.0,0.116699,0.077393,0.949707,-2.007634,-4.480916,-1.923664
850180370.0,0.125977,0.073975,0.944824,-2.015267,-4.236641,-1.954198
850192245.0,0.125,0.083496,0.938477,-2.061069,-4.267176,-2.053435
850204109.0,0.123047,0.071777,0.947998,-2.167939,-4.59542,-1.900763
850215970.0,0.121582,0.078125,0.94043,-2.152672,-4.251908,-1.954198
850227833.0,0.122803,0.081787,0.953125,-2.099237,-4.374046,-1.816794
850239706.0,0.118164,0.078369,0.947754,-1.908397,-4.328244,-1.839695
850251574.0,0.126221,0.078125,0.957764,-2.068702,-4.244275,-1.839695
850263438.0,0.124023,0.084717,0.948486,-2.076336,-4.229008,-1.900763
850275310.0,0.117676,0.077637,0.946289,-1.885496,-4.29771,-2.236641
850287181.0,0.122803,0.078613,0.939209,-1.78626,-3.938931,-2.229008
850299044.0,0.126465,0.086182,0.941406,-1.396947,-3.458015,-1.931298
850310906.0,0.126953,0.084961,0.950195,-1.641221,-2.366412,-1.984733
850322772.0,0.111328,0.074951,0.982422,-1.030534,-4.656488,-1.679389
850334643.0,0.129639,0.091309,0.921875,-1.89313,-3.412214,-1.908397
850346510.0,0.110596,0.08374,0.994629,-1.89313,-4.015267,-1.839695
850358374.0,0.123535,0.081055,0.956299,-2.099237,-4.374046,-2.030534
850370245.0,0.112061,0.088867,0.937988,-2.114504,-4.725191,-1.694656
850382115.0,0.128906,0.087402,0.950439,-1.625954,-4.053435,-2.015267
850393977.0,0.122559,0.08667,0.947754,-1.671756,-3.854962,-2.083969
850405840.0,0.125,0.072021,0.950928,-1.877863,-3.083969,-2.29771
850417711.0,0.12793,0.07666,0.969971,-2.221374,-4.885496,-2.038168
850429579.0,0.11792,0.069824,0.93457,-2.351145,-5.068702,-1.992366
850441444.0,0.130127,0.074707,0.932129,-2.061069,-4.343512,-1.885496
850453314.0,0.148926,0.101563,0.949951,-1.091603,-4.89313,-1.183206
850465190.0,0.119873,0.094482,0.908203,0.419847,-4.206107,-1.29771
850477039.0,0.106201,0.06543,0.95459,-0.381679,-1.083969,-1.625954
850488901.0,0.118652,0.078857,0.989746,-0.854962,-4.38168,-1.427481
850500770.0,0.114258,0.08252,0.955078,-0.89313,-7.351145,-1.717557
850512642.0,0.112305,0.075684,0.953125,-1.816794,-9.534351,-2.358779
850524509.0,0.133545,0.078857,0.94873,-1.992366,-10.854961,-2.374046
850536375.0,0.127197,0.074951,0.962402,-2.847328,-9.129771,-2.549618
850548248.0,0.120117,0.083008,0.948242,-2.290076,-9.259542,-2.51145
850560115.0,0.164062,0.075195,0.929687,-3.541985,-5.0,-2.137405
850571973.0,0.138428,0.073242,0.919434,-2.801527,0.496183,-1.793893
850583832.0,0.144531,0.077393,0.914307,-2.961832,8.885496,-1.755725
850595693.0,0.095703,0.083008,0.939697,-0.503817,0.80916,-1.916031
850607548.0,0.093994,0.090332,0.980225,-2.198473,-6.496183,-2.328244
850619426.0,0.124023,0.074707,0.956055,-1.984733,-8.969465,-3.641221
850631299.0,-0.033447,0.094238,0.941895,-1.053435,-6.526718,-9.458015
850643190.0,-0.153076,0.040283,0.911865,-5.38168,-19.480917,-27.213741
850655076.0,0.01123,0.083252,0.904785,1.564885,3.59542,-48.229008
850666905.0,0.283936,0.009521,0.920654,-0.022901,2.954198,-43.534351
850678763.0,0.427734,0.090332,1.02002,1.900763,-5.282443,-20.290077
850690619.0,0.249756,0.159668,0.927979,-0.206107,-4.603054,-1.465649
850702495.0,0.110107,0.084473,1.006104,-2.374046,-7.694656,-1.641221
850714367.0,0.163574,0.061768,0.994141,-3.648855,-7.129771,-0.099237
850726241.0,0.167725,0.069336,0.952148,-5.900764,-7.832061,0.549618
850738099.0,0.202393,0.05127,0.886963,-4.541985,-5.152672,4.854962
850749959.0,0.226074,0.012451,0.938477,-5.91603,-10.633588,3.847328
850761824.0,0.173096,0.039795,0.962158,-5.335878,-10.007633,-0.854962
850773699.0,0.114746,0.052002,0.953369,-4.877862,-7.954198,-10.641221
850785573.0,0.024658,0.08252,0.934814,-2.419847,-9.946565,-26.167938
850797438.0,-0.045898,0.147217,0.912109,-1.862595,-6.267176,-30.282442
850809330.0,-0.167236,0.154297,0.926758,-1.259542,0.687023,-23.885496
850821204.0,0.014648,0.110107,0.92627,-1.274809,5.343512,-28.725191
850833053.0,0.100342,0.144775,0.922363,-3.458015,21.87023,-35.572517
850844901.0,0.232666,0.099854,0.973877,-3.053435,29.198473,-30.076336
850856763.0,0.306885,0.049561,0.983154,0.961832,18.030535,-14.320611
850868594.0,0.281006,0.098389,1.053223,-2.335878,-3.984733,1.572519
850880441.0,0.114746,0.07666,0.984619,-3.320611,-5.603054,4.129771
850892298.0,0.155762,0.046875,0.950684,-2.40458,-10.267176,7.740458
850904154.0,0.152832,0.04248,0.907227,-3.442748,-18.954199,9.015267
850916010.0,0.147217,0.06665,0.926025,-4.564886,-19.755726,7.076336
850927864.0,0.084717,0.108398,0.944336,-2.396947,-13.015267,3.114504
850939716.0,0.02417,0.150879,0.912842,-1.145038,-2.969466,-3.587786
850951581.0,-0.043701,0.217041,0.937256,-0.175573,0.183206,-5.351145
850963446.0,0.0979,0.079834,0.906494,-0.160305,-4.21374,-7.274809
850975317.0,0.107178,0.106201,0.901611,1.358779,4.40458,-10.450381
850987155.0,0.138184,0.100098,0.938721,1.778626,12.396947,-10.755725
850998990.0,0.157715,0.090332,0.961182,1.755725,10.0,-7.473282
851010832.0,0.169189,0.064209,0.973145,1.160305,4.496183,-1.954198
851022686.0,0.123291,0.084229,1.001709,-0.526718,2.244275,-0.007634
851034548.0,0.126953,0.088379,0.998047,-1.061069,-1.099237,1.992366
851046404.0,0.112305,0.084961,0.949951,-1.832061,-5.290076,3.740458
851058262.0,0.105957,0.105957,0.950195,-2.587786,-7.969466,4.992366
851070115.0,0.082764,0.096436,0.932373,-1.847328,-10.374045,4.442748
851081970.0,0.063477,0.093506,0.904785,-0.541985,-4.572519,0.89313
851093832.0,0.062012,0.10376,0.954346,-0.557252,-2.251908,-2.763359
851105708.0,0.077393,0.098877,0.948975,-0.236641,-6.19084,-4.343512
851117574.0,0.085937,0.102783,0.935059,0.045802,-3.816794,-6.061069
851129435.0,0.102539,0.095947,0.954102,0.290076,1.78626,-7.664122
851141280.0,0.115723,0.067627,0.979248,-0.610687,0.503817,-6.870229
851153136.0,0.16333,0.04834,0.993652,-2.717557,-6.648855,-2.877863
851165011.0,0.142822,0.075195,0.921631,-2.374046,-4.19084,-1.022901
851176895.0,0.121826,0.089355,0.938721,-2.366412,-0.236641,0.328244
851188757.0,0.108398,0.077393,0.985352,-3.717557,-3.977099,1.961832
851200620.0,0.12085,0.088867,0.971191,-4.099236,-7.694656,3.48855
851212476.0,0.088623,0.093262,0.937744,-4.351145,-9.908397,4.076336
851224336.0,0.080811,0.117676,0.919678,-3.572519,-6.793893,2.274809
851236191.0,0.060547,0.116699,0.930664,-2.259542,-5.832061,-0.259542
851248058.0,0.07666,0.116943,0.91748,-0.992366,-5.694656,-3.480916
851259916.0,0.077881,0.095215,0.931152,-0.29771,-4.755725,-5.648855
851271784.0,0.088379,0.107178,0.932617,0.366412,-1.167939,-7.732824
851283637.0,0.115967,0.082764,0.94873,0.885496,4.022901,-8.679389
851295476.0,0.155273,0.070801,0.989502,-1.015267,-2.648855,-5.114504
851307358.0,0.148926,0.070801,0.968506,-2.152672,-5.465649,-1.51145
851319235.0,0.11792,0.086182,0.949951,-1.854962,-1.427481,-0.603053
851331109.0,0.0979,0.102295,0.952393,-2.244275,-2.312977,-0.114504
851342970.0,0.10498,0.101074,0.94165,-2.412214,-3.816794,-0.045802
851354833.0,0.093262,0.097412,0.955566,-2.183206,-4.282443,-0.129771
851366706.0,0.095215,0.098145,0.933594,-2.328244,-4.656488,-0.954198
851378574.0,0.082031,0.100098,0.946045,-2.267176,-5.687023,-1.832061
851390438.0,0.095947,0.094971,0.930664,-1.656489,-5.007634,-2.534351
851402313.0,0.088135,0.098389,0.914062,-0.984733,-3.992366,-3.755725
851414191.0,0.094971,0.086426,0.945801,-0.648855,-3.305344,-4.778626
851426057.0,0.115479,0.093994,0.950195,0.0,-2.374046,-4.40458
851437901.0,0.122314,0.08252,0.956543,-0.419847,-2.061069,-3.778626
851449769.0,0.136475,0.08252,0.957031,-0.931298,-1.122137,-2.061069
851461637.0,0.110596,0.081055,0.977539,-1.732824,-0.709924,-1.175573
851473504.0,0.112549,0.092529,0.98877,-2.572519,-2.366412,-0.221374
851485369.0,0.093262,0.094482,0.947266,-2.671756,-4.053435,-0.083969
851497244.0,0.096191,0.097656,0.93457,-2.465649,-4.198473,-0.503817
851509115.0,0.089111,0.106201,0.929199,-1.977099,-3.89313,-1.442748
851520975.0,0.090088,0.098145,0.944336,-2.145038,-4.40458,-2.122137
851532840.0,0.080811,0.102539,0.943359,-1.740458,-5.923664,-2.908397
851544711.0,0.085205,0.104248,0.926514,-1.175573,-5.198473,-3.625954
851556579.0,0.097656,0.095703,0.928467,-0.496183,-5.450382,-4.51145
851568444.0,0.123291,0.09375,0.937988,-0.137405,-2.648855,-4.435114
851580313.0,0.102295,0.089111,0.965088,-0.51145,-2.038168,-4.206107
851592181.0,0.123047,0.084473,0.9729,-1.175573,-3.78626,-3.076336
851604047.0,0.136719,0.083984,0.977783,-2.580153,-3.648855,-0.908397
851615907.0,0.108154,0.08667,0.970703,-3.267176,-2.938931,-0.290076
851627774.0,0.105225,0.083252,0.944336,-3.129771,-2.80916,0.320611
851639631.0,0.093506,0.099121,0.940186,-3.068702,-3.129771,0.480916
851651494.0,0.088135,0.11084,0.919434,-2.175573,-3.122137,-0.832061
851663367.0,0.06543,0.119141,0.907227,-1.389313,-2.89313,-2.320611
851675241.0,0.067871,0.115723,0.947998,-0.770992,-5.938931,-3.854962
851687109.0,0.070801,0.109131,0.930176,-0.366412,-7.931298,-5.572519
851698973.0,0.117188,0.094727,0.920166,-0.053435,-4.236641,-6.236641
851710836.0,0.092773,0.087646,0.945557,0.732824,2.229008,-8.297709
851722686.0,0.135986,0.081543,0.983398,0.076336,0.40458,-5.862596
851734514.0,0.163574,0.072754,0.963867,-1.816794,-3.007634,-1.450382
851746381.0,0.112549,0.080811,0.98877,-2.389313,0.923664,-0.290076
851758240.0,0.095215,0.086182,0.960449,-2.740458,0.748092,0.70229
851770077.0,0.091797,0.096436,0.943359,-3.320611,-2.068702,0.908397
851781932.0,0.087891,0.101074,0.948975,-3.572519,-3.40458,0.832061
851793783.0,0.079102,0.106445,0.937256,-3.175573,-3.778626,-0.259542
851805652.0,0.058838,0.111084,0.923828,-2.083969,-5.10687,-2.129771
851817520.0,0.060547,0.115234,0.916992,-1.229008,-7.717557,-4.038168
851829397.0,0.068115,0.11499,0.941406,-1.48855,-8.290076,-5.900764
851841269.0,0.106201,0.108398,0.949219,-0.870229,-7.290076,-6.740458
851853138.0,0.115234,0.09375,0.947998,-0.351145,0.732824,-7.648855
851864986.0,0.183594,0.067871,0.991943,-0.961832,-1.396947,-2.793893
851876848.0,0.118652,0.084717,0.95874,-1.412214,2.015267,-0.503817
851888706.0,0.094971,0.088379,0.970215,-1.633588,2.312977,0.770992
851900540.0,0.070068,0.100342,0.971924,-2.900763,-1.78626,0.847328
851912398.0,0.063721,0.095215,0.960205,-3.740458,-5.877862,0.0
851924249.0,0.065186,0.106689,0.929932,-3.412214,-5.740458,-1.679389
851936118.0,0.084473,0.105225,0.927246,-2.717557,-6.740458,-2.51145
851947975.0,0.097168,0.097656,0.904785,-1.19084,-7.10687,-3.274809
851959840.0,0.103516,0.104492,0.887939,0.694656,0.656489,-3.625954
851971691.0,0.085937,0.111572,0.944336,1.847328,4.763359,-4.10687
851983515.0,0.101563,0.113525,0.959473,1.870229,6.70229,-3.748092
851995354.0,0.125732,0.094238,0.975586,0.977099,7.793893,-2.251908
852007189.0,0.101318,0.074951,1.007568,-0.236641,7.19084,-0.78626
852019033.0,0.074951,0.081787,0.98877,-1.503817,2.290076,-0.167939
852030888.0,0.078857,0.093262,0.958496,-2.206107,-2.351145,0.40458
852042743.0,0.071533,0.099121,0.966797,-3.045802,-3.458015,0.435115
852054581.0,0.056641,0.107666,0.96582,-3.709924,-7.015267,-0.419847
852066439.0,0.060791,0.11377,0.924805,-3.679389,-9.0,-1.954198
852078302.0,0.075195,0.110596,0.907959,-2.625954,-8.19084,-2.778626
852090167.0,0.076416,0.104248,0.919434,-1.732824,-6.274809,-3.740458
852102034.0,0.080322,0.098633,0.933838,-0.267176,-4.091603,-4.38168
852113897.0,0.101563,0.0979,0.957275,-0.534351,-3.320611,-4.129771
852125761.0,0.121338,0.100098,0.980957,-1.40458,-2.29771,-2.29771
852137627.0,0.104004,0.084229,0.9646,-1.748092,-0.343511,-1.007634
852149498.0,0.0896,0.091309,0.946533,-1.351145,1.083969,-0.290076
852161354.0,0.082275,0.090332,0.959717,-2.251908,-1.206107,0.129771
852173218.0,0.066895,0.093994,0.974609,-3.122137,-4.671756,0.480916
852185071.0,0.055176,0.099854,0.965576,-3.984733,-8.015267,-0.068702
852196929.0,0.064453,0.111084,0.935303,-4.10687,-10.160305,-1.076336
852208794.0,0.0625,0.112549,0.913574,-2.59542,-7.778626,-2.839695
852220651.0,0.060059,0.108154,0.908203,-1.610687,-8.244275,-3.725191
852232509.0,0.080322,0.115723,0.922852,-1.030534,-6.984733,-4.847328
852244374.0,0.107178,0.109619,0.933838,-0.183206,-2.496183,-5.229008
852256248.0,0.127441,0.084717,0.980469,-0.992366,-3.114504,-3.183206
852268109.0,0.123779,0.077393,0.982422,-1.374046,0.519084,-1.015267
852279963.0,0.097168,0.084961,0.966064,-1.534351,2.419847,0.099237
852291803.0,0.066162,0.094238,0.96875,-2.21374,-0.259542,0.435115
852303651.0,0.073242,0.106201,0.975342,-3.763359,-4.977099,0.175573
852315504.0,0.083252,0.092285,0.958252,-4.282443,-8.114504,0.366412
852327361.0,0.080078,0.105713,0.937988,-4.274809,-7.923664,-0.038168
852339236.0,0.081299,0.11377,0.922607,-3.312977,-6.59542,-0.610687
852351109.0,0.053223,0.111816,0.943115,-2.717557,-6.290076,-2.076336
852362970.0,0.072998,0.115234,0.879883,-0.717557,-6.564886,-3.450382
852374833.0,0.084961,0.120361,0.908691,-0.259542,-4.114504,-4.931298
852386706.0,0.102295,0.103271,0.976318,-0.175573,-2.305344,-4.900764
852398574.0,0.128662,0.095215,0.981689,-0.679389,-2.21374,-3.083969
852410438.0,0.123535,0.081543,0.954346,-1.732824,-0.885496,-1.244275
852422310.0,0.098389,0.085449,0.958984,-1.480916,3.129771,-0.206107
852434172.0,0.071777,0.100342,0.95752,-1.534351,3.824427,-0.21374
852446032.0,0.059326,0.104004,0.955811,-2.274809,1.274809,-0.557252
852457893.0,0.084229,0.100342,0.941162,-1.816794,3.465649,-0.938931
852469757.0,0.092041,0.100098,0.918701,-0.335878,9.603053,-0.900763
852481614.0,0.079102,0.109131,0.946289,0.114504,15.267176,-1.022901
852493447.0,0.08252,0.102051,0.946289,0.732824,21.305344,-0.89313
852505298.0,0.085449,0.108154,0.939209,1.206107,28.610687,-0.541985
852517138.0,0.07373,0.109375,0.940674,1.969466,36.992367,-0.366412
852528972.0,0.062012,0.098145,0.926514,2.496183,49.763359,-0.664122
852540824.0,0.058838,0.107422,0.959717,3.091603,61.38168,-0.29771
852552658.0,0.025635,0.101807,0.981689,3.10687,64.091606,-0.557252
852564503.0,0.012695,0.096191,0.977783,3.89313,71.816795,-1.496183
852576353.0,0.010742,0.11792,0.961914,2.648855,79.465652,-1.78626
852588196.0,0.028809,0.122314,0.963867,3.114504,96.923668,-1.564885
852600039.0,-0.022217,0.099121,0.999512,2.954198,112.916031,-1.374046
852611895.0,-0.070312,0.098389,0.98291,1.755725,118.251907,-1.19084
852623763.0,-0.11084,0.109863,0.956787,0.870229,114.664124,-1.244275
852635621.0,-0.15918,0.10791,0.929687,-0.648855,102.045799,-1.427481
852647496.0,-0.187744,0.118896,0.904297,-0.80916,80.496185,-1.343511
852659367.0,-0.216797,0.11499,0.898926,-1.335878,55.015266,-1.022901
852671241.0,-0.220215,0.113281,0.904785,-2.450382,32.450382,-0.801527
852683108.0,-0.194092,0.118652,0.918457,-2.053435,18.213741,-0.877863
852694970.0,-0.195557,0.116211,0.937256,-2.167939,11.076336,-0.854962
852706835.0,-0.192139,0.106445,0.939209,-2.824427,6.015267,-0.641221
852718708.0,-0.195557,0.116943,0.927246,-3.282443,-0.870229,-1.0
852730586.0,-0.212158,0.120361,0.920654,-3.40458,-14.061069,-1.473282
852742476.0,-0.238037,0.125244,0.914795,-3.877863,-38.9771,-2.541985
852754367.0,-0.271973,0.116699,0.885742,-5.145038,-80.564888,-3.19084
852766250.0,-0.262207,0.114502,0.886719,-6.59542,-132.618317,-3.931298
852778137.0,-0.242676,0.083252,0.884033,-3.961832,-193.732819,-3.877863
852790034.0,-0.191162,0.103271,0.891846,-5.954198,-250.137405,-3.328244
852801910.0,-0.105957,0.12207,0.902832,-11.564885,-250.137405,-4.183206
852813800.0,0.449463,0.201416,0.80127,-28.977098,-235.404587,-6.679389
852825677.0,0.333252,-0.025391,1.292236,6.08397,-10.175572,-6.633588
852837551.0,-0.000732,0.152832,0.848145,-4.022901,-53.687023,-5.022901
852849435.0,0.17627,0.089355,0.680908,-13.183207,-38.32061,-4.625954
852861307.0,0.117676,0.119385,1.024902,-2.870229,-15.694656,-3.099237
852873181.0,0.057617,0.091553,0.955078,-2.503817,-20.992367,-2.977099
852885047.0,0.112061,0.121582,0.956055,-7.152672,-28.51145,-3.160305
852896907.0,0.121826,0.104492,0.916992,-2.541985,-21.992367,-2.900763
852908772.0,0.120117,0.101807,0.858887,-3.198473,-11.282443,-2.480916
852920643.0,0.141602,0.097412,0.935547,-2.236641,-2.480916,-2.290076
852932507.0,0.154785,0.103271,0.830566,-0.10687,15.801527,-1.610687
852944367.0,0.157227,0.100098,0.893555,-0.816794,29.282442,-0.923664
852956229.0,0.119141,0.101074,0.99585,2.076336,45.67939,-0.328244
852968064.0,0.105225,0.095459,0.944092,3.290076,56.259541,-0.21374
852979901.0,0.071289,0.100098,0.931152,3.778626,67.480919,-0.847328
852991733.0,0.045166,0.108398,0.986328,3.740458,76.076332,-1.961832
853003574.0,0.040527,0.103271,1.003418,1.259542,81.496185,-1.572519
853015419.0,0.032959,0.097412,1.022217,0.763359,91.977097,-1.473282
853027261.0,0.024414,0.102295,0.970215,0.526718,102.923668,-0.885496
853039100.0,-0.004639,0.098389,0.953369,-0.328244,115.496185,-0.519084
853050969.0,-0.069336,0.108398,0.979736,-0.21374,116.328247,-0.496183
853062833.0,-0.108398,0.114258,0.94751,-1.320611,103.984734,-0.312977
853074706.0,-0.159424,0.11792,0.912109,-1.610687,75.503815,-0.78626
853086574.0,-0.189453,0.112061,0.901855,-2.572519,40.045803,-1.129771
853098438.0,-0.189941,0.090576,0.916504,-2.748092,5.0,-1.458015
853110309.0,-0.171631,0.10791,0.940918,-2.312977,-22.007633,-1.732824
853122196.0,-0.143555,0.104736,0.927734,-2.091603,-41.740459,-2.389313
853134085.0,-0.125488,0.111816,0.912842,-2.625954,-55.740459,-2.862595
853145970.0,-0.098145,0.11084,0.952148,-2.885496,-63.450382,-3.137405
853157846.0,-0.059814,0.108643,0.953857,-2.282443,-59.595421,-3.030534
853169730.0,-0.059326,0.106201,0.960937,-1.992366,-52.725189,-3.038168
853181620.0,-0.048828,0.103027,0.954834,-2.21374,-49.61832,-2.763359
853193504.0,-0.066162,0.106934,0.948486,-2.335878,-53.725189,-3.015267
853205386.0,-0.052979,0.109863,0.926025,-2.725191,-64.71756,-3.076336
853217289.0,-0.040527,0.102295,0.946533,-3.015267,-69.778625,-3.183206
853229182.0,-0.001709,0.095947,0.983887,-3.328244,-68.587784,-3.183206
853241063.0,0.034424,0.102295,0.954102,-3.076336,-61.580154,-3.091603
853252933.0,0.043457,0.100098,0.963623,-3.206107,-44.519085,-3.045802
853264804.0,0.020264,0.115967,0.974609,-2.526718,-39.847328,-2.946565
853276686.0,0.027588,0.104004,0.926514,-3.167939,-41.587788,-3.0
853288561.0,0.05127,0.096191,0.944336,-3.679389,-36.32061,-2.946565
853300435.0,0.069092,0.100586,0.9729,-3.366412,-23.19084,-2.717557
853312307.0,0.056641,0.101318,0.9646,-2.206107,-13.358779,-2.312977
853324181.0,0.037109,0.106201,0.933105,-2.717557,-12.610687,-2.465649
853336047.0,0.043701,0.10791,0.943848,-3.10687,-19.198473,-2.519084
853347908.0,0.054932,0.104004,0.966064,-3.259542,-19.725191,-2.290076
853359772.0,0.052246,0.114258,0.96167,-2.938931,-17.786259,-2.114504
853371643.0,0.068604,0.101318,0.939941,-2.923664,-13.175572,-2.305344
853383508.0,0.060791,0.104736,0.951416,-3.030534,-9.931297,-2.083969
853395375.0,0.087158,0.105469,0.911133,-1.954198,-4.068702,-1.793893
853407249.0,0.059814,0.107178,0.944824,-1.763359,0.877863,-1.801527
853419101.0,0.07373,0.100586,0.921875,-0.870229,5.70229,-1.687023
853430959.0,0.085205,0.10791,0.929932,-0.824427,13.465649,-1.374046
853442823.0,0.100342,0.105713,0.953125,0.19084,32.725189,-0.473282
853454656.0,0.110352,0.109131,0.946045,0.679389,53.870228,0.137405
853466485.0,0.06665,0.101807,0.998291,0.534351,81.183205,0.083969
853478306.0,0.046387,0.101074,0.993164,1.007634,99.71756,0.450382
853490124.0,-0.008789,0.100098,0.965576,0.435115,110.709923,0.89313
853501965.0,-0.053467,0.109619,0.965332,-0.068702,111.0,0.687023
853513827.0,-0.092529,0.104492,0.921387,-0.496183,98.534348,0.801527
853525692.0,-0.124268,0.110352,0.931641,-1.259542,78.740456,0.068702
853537548.0,-0.147705,0.114258,0.933105,-1.541985,56.488548,-0.305344
853549426.0,-0.156738,0.113037,0.920166,-1.175573,33.992367,-0.671756
853561298.0,-0.158203,0.108643,0.927734,-1.839695,13.396947,-1.183206
853573174.0,-0.152588,0.112793,0.933105,-2.358779,-7.08397,-1.801527
853585057.0,-0.139648,0.11377,0.931152,-2.694656,-22.015266,-2.099237
853596938.0,-0.131104,0.101807,0.933594,-2.51145,-33.961834,-2.458015
853608832.0,-0.130859,0.102051,0.948975,-2.740458,-46.526718,-2.725191
853620722.0,-0.130615,0.108643,0.944336,-3.198473,-63.503819,-3.312977
853632619.0,-0.131104,0.107178,0.921875,-3.740458,-87.473282,-3.541985
853644504.0,-0.111084,0.112549,0.947266,-3.877863,-113.633591,-3.526718
853656386.0,-0.07251,0.112305,0.936279,-4.290076,-137.427475,-3.725191
853668289.0,-0.013672,0.108398,0.983398,-5.320611,-146.648849,-3.580153
853680182.0,0.109863,0.098633,0.983398,-6.366412,-120.702293,-3.450382
853692047.0,0.211182,0.087646,0.983643,-4.61832,-59.496181,-3.175573
853703907.0,0.113525,0.089111,0.973389,-1.198473,-5.557252,-2.328244
853715773.0,0.044189,0.116943,0.9104,-1.931298,-2.519084,-1.732824
853727642.0,0.05249,0.109375,0.903564,-3.625954,-8.824428,-1.763359
853739508.0,0.073242,0.101318,0.957031,-1.938931,-3.862595,-2.053435
853751374.0,0.072266,0.10498,0.953125,-1.442748,5.305344,-1.603053
853763234.0,0.045898,0.101318,0.959961,-1.160305,9.625955,-1.442748
853775091.0,0.07666,0.106934,0.9375,-1.427481,17.633587,-1.282443
853786940.0,0.067871,0.097656,0.973389,-1.374046,30.343512,-0.885496
853798795.0,0.06543,0.100586,0.955322,-0.80916,45.145039,-0.816794
853810643.0,0.032471,0.105957,0.963867,-0.70229,57.549618,-0.496183
853822503.0,0.005615,0.101318,0.955811,-0.396947,60.068703,-0.465649
853834361.0,0.010986,0.115723,0.940186,-1.122137,62.671757,-0.687023
853846229.0,-0.029053,0.097168,0.975342,-0.557252,66.404579,-0.732824
853858100.0,-0.044189,0.111328,0.946533,-0.687023,63.816795,-0.618321
853869969.0,-0.067383,0.103027,0.938965,-1.236641,58.290077,-0.824427
853881833.0,-0.088135,0.108643,0.942139,-1.129771,46.198475,-1.129771
853893707.0,-0.083496,0.106689,0.936768,-1.610687,38.488548,-1.328244
853905573.0,-0.110352,0.113281,0.952881,-1.244275,27.977098,-1.450382
853917438.0,-0.11377,0.109619,0.931152,-1.748092,14.198473,-1.770992
853929310.0,-0.114502,0.111572,0.948486,-2.473282,0.122137,-1.946565
853941188.0,-0.130127,0.113281,0.917236,-2.503817,-17.458015,-2.274809
853953076.0,-0.117676,0.102051,0.925537,-2.549618,-34.595421,-2.557252
853964970.0,-0.11792,0.10791,0.955322,-2.778626,-51.717556,-2.931298
853976847.0,-0.114258,0.111816,0.942627,-2.832061,-73.839691,-3.251908
853988730.0,-0.091309,0.109131,0.921875,-3.671756,-97.71756,-3.198473
854000620.0,-0.0625,0.102539,0.951904,-4.122138,-115.549622,-3.610687
854012504.0,0.002197,0.10791,0.942871,-4.099236,-119.480919,-3.816794
854024373.0,0.092285,0.100098,0.952148,-4.992366,-98.557251,-3.763359
854036244.0,0.136963,0.09668,1.004639,-3.114504,-53.587788,-3.427481
854048109.0,0.134033,0.102539,0.950684,-1.778626,-9.480916,-2.343511
854059970.0,0.05249,0.110352,0.925049,-1.48855,3.236641,-1.954198
854071832.0,0.022705,0.105469,0.918945,-2.557252,-2.977099,-1.679389
854083705.0,0.058105,0.103027,0.924805,-2.068702,-3.557252,-1.885496
854095573.0,0.075195,0.100586,0.937744,-0.778626,12.442748,-1.78626
854107435.0,0.052734,0.103271,0.966797,-0.854962,25.335878,-1.580153
854119298.0,0.061279,0.098145,0.948486,-0.709924,38.717556,-1.022901
854131154.0,0.069824,0.095459,0.967285,-1.053435,59.603054,-0.793893
854143010.0,0.031738,0.099854,0.971924,0.305344,80.267174,-0.290076
854154842.0,0.000488,0.103516,0.957031,-0.137405,92.549622,-0.007634
854166701.0,-0.043213,0.11084,0.957031,-0.709924,94.60305,0.167939
854178562.0,-0.067871,0.102783,0.946533,-0.862595,89.786263,0.274809
854190426.0,-0.125977,0.109375,0.946777,-1.114504,74.39695,-0.122137
854202298.0,-0.133789,0.114258,0.916504,-1.78626,49.015266,-0.351145
854214174.0,-0.1604,0.119141,0.906982,-1.732824,19.022902,-1.022901
854226039.0,-0.169922,0.11499,0.911621,-2.320611,-12.129771,-1.748092
854237914.0,-0.166016,0.117188,0.927979,-2.465649,-45.221375,-2.48855
854249801.0,-0.156738,0.116455,0.91626,-2.984733,-79.938934,-2.984733
854261692.0,-0.123535,0.110352,0.937744,-3.480916,-110.816795,-3.167939
854273574.0,-0.070801,0.103027,0.952393,-3.656489,-133.832062,-3.152672
854285458.0,-0.008057,0.10791,0.965576,-4.679389,-138.129776,-3.137405
854297358.0,0.069092,0.096436,0.994873,-5.740458,-119.015266,-3.282443
854309235.0,0.122803,0.091064,1.005127,-4.267176,-75.236641,-3.114504
854321108.0,0.148437,0.098633,0.928955,-2.709924,-25.717558,-2.694656
854332970.0,0.051514,0.103516,0.944824,-2.061069,-4.458015,-2.312977
854344833.0,0.023193,0.10498,0.949463,-3.251908,-9.206107,-2.328244
854356706.0,0.041748,0.099121,0.967773,-3.21374,-12.40458,-1.931298
854368574.0,0.055664,0.098389,0.951904,-2.832061,-7.198473,-2.030534
854380438.0,0.049561,0.095703,0.944092,-1.931298,-5.045802,-2.068702
854392310.0,0.061035,0.102539,0.941895,-2.435115,-0.793893,-1.916031
854404181.0,0.050293,0.101074,0.955078,-1.755725,4.946565,-1.839695
854416039.0,0.070801,0.099121,0.941406,-1.832061,14.824428,-1.847328
854427895.0,0.067139,0.108154,0.944336,-1.221374,26.67939,-1.526718
854439763.0,0.044678,0.10376,0.958496,-1.21374,35.854961,-1.664122
854451620.0,0.033936,0.105713,0.958008,-1.259542,41.908398,-1.625954
854463476.0,0.009277,0.110596,0.943359,-1.274809,39.610687,-1.381679
854475335.0,-0.005127,0.106445,0.955322,-2.251908,42.450382,-1.076336
854487222.0,-0.026611,0.106934,0.971191,-0.625954,43.404579,-0.992366
854499099.0,-0.103027,0.105713,0.983887,-0.381679,20.374046,-1.885496
854510970.0,-0.150635,0.106689,0.896973,-0.877863,-36.450382,-2.900763
854522846.0,-0.156738,0.123535,0.900635,-3.274809,-105.740456,-3.763359
854534730.0,-0.085693,0.102539,0.975342,-6.572519,-174.56488,-2.557252
854546619.0,0.343506,0.080322,1.067139,-18.412214,-104.687019,-2.198473
854558496.0,0.075684,0.048828,1.164795,0.557252,-38.045803,-3.015267
854570358.0,0.085449,0.123291,0.883789,-6.732824,-62.870228,-1.328244
854582232.0,0.13208,0.101807,0.740723,-11.427481,-61.38168,-3.679389
854594109.0,0.054687,0.10791,0.978027,-8.908397,-49.229008,-5.442748
854605970.0,0.092773,0.080566,1.02832,-4.778626,-50.526718,-4.748092
854617833.0,0.116699,0.085449,1.028076,-5.366412,-58.351147,-5.351145
854629707.0,0.079102,0.089844,0.976562,-4.801527,-68.343513,-6.236641
854641574.0,0.149414,0.10083,0.938232,-4.206107,-68.145035,-5.603054
854653438.0,0.161621,0.100098,0.975586,-3.549618,-68.236641,-4.931298
854665310.0,0.126221,0.123779,0.966797,-3.694656,-68.129768,-4.938931
854677181.0,0.154053,0.109619,0.984619,-2.320611,-77.053436,-3.335878
854689047.0,0.161377,0.116455,1.041748,-3.167939,-85.587784,-2.480916
854700907.0,0.154541,0.10791,1.06543,-2.335878,-99.969467,-2.114504
854712774.0,0.17627,0.113281,1.063965,-1.854962,-119.71756,-0.694656
854724643.0,0.206787,0.128174,0.987061,0.564885,-129.755722,2.389313
854736490.0,0.260986,0.104248,0.87085,1.900763,-126.931297,6.59542
854748330.0,0.332275,0.085693,0.726807,2.824427,-108.587784,9.358779
854760175.0,0.377197,0.088135,0.66333,3.351145,-78.793892,11.984733
854772013.0,0.438232,0.081055,0.564697,3.198473,-37.290077,13.633588
854783846.0,0.506592,0.064209,0.533447,1.709924,8.0,10.305344
854795661.0,0.583496,0.049805,0.482666,-3.061069,60.083969,0.824427
854807504.0,0.408203,0.114502,0.429932,-5.900764,126.106873,-0.51145
854819362.0,0.39209,0.067383,0.406738,-8.610687,194.404587,-1.656489
854831229.0,0.293457,0.054932,0.552002,-9.557252,250.129776,-4.656488
854843087.0,0.077393,0.081299,1.130859,-7.0,250.129776,-8.473283
854854939.0,-0.233398,0.156982,1.999939,7.038168,177.755722,-4.274809
854866796.0,-0.056885,0.093018,1.453369,3.083969,59.480915,-1.10687
854878652.0,0.121338,0.091309,0.864746,1.282443,55.839695,-2.19084
854890495.0,0.0271,0.118652,0.855957,3.648855,73.977097,-6.343512
854902337.0,0.128662,0.141846,0.878662,10.21374,88.916031,-10.648855
854914181.0,0.10498,0.044189,1.05835,9.129771,103.893127,-5.80916
854926023.0,0.02417,0.078613,1.062744,7.29771,95.725189,-2.755725
854937853.0,-0.019043,0.109863,1.015869,2.633588,90.877861,-2.503817
854949708.0,-0.035156,0.101563,0.962402,0.770992,84.022903,-3.282443
854961564.0,-0.056396,0.096436,0.951416,0.450382,72.297707,-3.091603
854973426.0,-0.086914,0.105225,0.946045,-1.114504,54.129772,-2.748092
854985298.0,-0.101074,0.104736,0.943359,-1.564885,28.847328,-2.083969
854997172.0,-0.134277,0.110352,0.927734,-1.938931,-1.977099,-1.854962
855009049.0,-0.150391,0.108154,0.930664,-2.076336,-41.450382,-2.412214
855020932.0,-0.157959,0.099365,0.931885,-3.40458,-92.625954,-2.709924
855032827.0,-0.151855,0.101074,0.921875,-4.160306,-154.236649,-3.114504
855044716.0,-0.036621,0.093994,0.935303,-8.320611,-195.870224,-2.740458
855056613.0,0.169189,0.103271,1.102051,-12.358779,-160.572525,-3.389313
855068490.0,0.31958,0.080078,1.115234,-7.076336,-56.015266,-4.259542
855080366.0,0.041992,0.084229,0.933838,-2.992366,-41.038166,-3.458015
855092242.0,0.053223,0.121094,0.888428,-9.748092,-56.374046,-4.19084
855104109.0,0.096436,0.104492,0.996094,-11.167939,-60.564884,-4.099236
855115972.0,0.148193,0.074219,0.982422,-4.679389,-54.129772,-4.442748
855127840.0,0.131348,0.102539,0.947754,-4.259542,-51.083969,-3.885496
855139716.0,0.12085,0.096924,0.960693,-5.572519,-54.870228,-4.122138
855151579.0,0.1521,0.100342,0.947021,-4.633588,-54.870228,-4.076336
855163444.0,0.185303,0.104492,0.865723,-3.580153,-44.748093,-3.694656
855175314.0,0.191162,0.104248,0.820801,-3.59542,-31.175573,-3.0
855187188.0,0.224121,0.094238,0.791992,-2.381679,-9.725191,-2.473282
855199050.0,0.221924,0.101318,0.783203,-1.587786,14.793893,-2.030534
855210901.0,0.198975,0.097656,0.808105,-1.496183,36.305344,-1.862595
855222763.0,0.245117,0.0979,0.729004,0.519084,71.0,-1.89313
855234593.0,0.123535,0.102295,0.903564,0.862595,101.572517,-4.145038
855246435.0,0.059082,0.101807,1.153809,3.618321,87.885498,-4.396946
855258289.0,0.047363,0.101563,1.11792,7.465649,60.9771,-2.78626
855270124.0,0.063477,0.104004,1.013428,4.038168,50.564884,-2.450382
855281963.0,0.037109,0.101074,0.973877,2.984733,40.67939,-2.763359
855293801.0,0.087646,0.110352,0.936768,1.48855,40.786259,-2.656489
855305643.0,0.046631,0.098877,0.992676,2.496183,49.152672,-3.396947
855317485.0,0.019043,0.096924,0.988525,1.725191,44.007633,-3.015267
855329318.0,0.057373,0.112549,0.948975,-1.099237,38.725189,-1.557252
855341174.0,-0.008301,0.100342,0.979248,-0.679389,40.816795,-2.274809
855353039.0,-0.014404,0.100342,0.969727,-0.59542,32.190838,-2.435115
855364901.0,-0.032471,0.102051,0.961426,-2.40458,16.351145,-2.351145
855376767.0,-0.036865,0.0979,0.937988,-2.167939,-4.549618,-2.183206
855388649.0,-0.058838,0.108154,0.938965,-2.328244,-28.770992,-2.198473
855400539.0,-0.04834,0.107666,0.95459,-2.961832,-58.854961,-2.129771
855412435.0,-0.018066,0.101807,0.976318,-4.587786,-84.389313,-1.664122
855424318.0,0.037354,0.095459,0.990967,-5.244275,-91.389313,-2.045802
855436190.0,0.117432,0.102539,0.974365,-6.167939,-73.916031,-2.351145
855448058.0,0.167725,0.092529,0.931885,-4.770992,-38.862595,-2.709924
855459917.0,0.075928,0.107422,0.967529,-4.984733,-37.160305,-2.541985
855471785.0,0.084473,0.107178,0.914795,-6.038168,-38.175571,-2.328244
855483652.0,0.119385,0.102295,0.918945,-5.80916,-31.541985,-2.343511
855495520.0,0.119385,0.102295,0.929443,-3.603053,-21.167938,-2.435115
855507397.0,0.120605,0.102539,0.902344,-3.045802,-14.694656,-2.145038
855519269.0,0.10498,0.100342,0.93335,-2.900763,-11.549619,-2.167939
855531144.0,0.115967,0.096191,0.939697,-2.465649,-8.328244,-2.122137
855543024.0,0.118164,0.100098,0.919922,-1.671756,-2.740458,-1.862595
855554896.0,0.110107,0.095215,0.934326,-1.992366,0.183206,-1.908397
855566758.0,0.114502,0.093506,0.92749,-1.458015,4.061069,-1.916031
855578619.0,0.109131,0.104004,0.944336,-1.267176,8.175572,-1.51145
855590476.0,0.103271,0.098389,0.936279,-0.687023,12.236641,-1.687023
855602335.0,0.080322,0.099854,0.96167,-0.549618,11.274809,-1.70229
855614191.0,0.079834,0.102539,0.955566,-0.89313,6.175572,-1.572519
855626039.0,0.093262,0.093506,0.952148,-1.358779,3.40458,-1.763359
855637895.0,0.086914,0.096436,0.947021,-0.854962,4.725191,-1.564885
855649759.0,0.079102,0.104004,0.95874,-0.954198,3.0,-1.740458
855661615.0,0.08252,0.099854,0.948975,-1.427481,0.610687,-1.89313
855673476.0,0.085937,0.095947,0.951416,-1.328244,0.099237,-1.763359
855685336.0,0.093994,0.100586,0.942627,-1.29771,1.114504,-1.717557
855697191.0,0.102295,0.102539,0.934814,-0.931298,6.534351,-1.847328
855709044.0,0.075195,0.09668,0.946045,-0.450382,9.083969,-2.007634
855720901.0,0.114746,0.121094,0.925537,-0.641221,14.045801,-1.328244
855732763.0,0.093262,0.104736,0.92749,1.671756,31.152672,-1.656489
855744602.0,0.053467,0.105225,0.974365,0.854962,34.961834,-2.045802
855756438.0,0.084961,0.111816,0.965332,-0.549618,34.526718,-1.900763
855768298.0,0.120361,0.102783,0.941895,-0.519084,67.862595,-2.0
855780154.0,0.048096,0.10498,0.991699,1.366412,87.488548,-2.526718
855791991.0,-0.001953,0.103516,0.997559,1.381679,90.022903,-4.282443
855803840.0,-0.012207,0.105713,0.930176,-1.778626,86.419846,-4.267176
855815716.0,-0.083252,0.084229,0.970947,-0.839695,77.473282,-4.38168
855827581.0,-0.070801,0.099609,0.929687,-1.137405,57.35878,-3.305344
855839447.0,-0.10083,0.092041,0.927734,-2.244275,36.64122,-2.061069
855851318.0,-0.060059,0.117188,0.92627,-2.633588,20.893129,-1.137405
855863190.0,-0.092773,0.094482,0.969727,-2.061069,17.954199,-1.603053
855875053.0,-0.093506,0.104736,0.966309,-1.687023,10.633588,-1.80916
855886908.0,-0.095947,0.118896,0.930176,-2.335878,-3.389313,-1.793893
855898795.0,-0.097656,0.112549,0.937988,-2.389313,-17.954199,-1.732824
855910692.0,-0.115723,0.104004,0.951172,-2.480916,-37.251907,-2.083969
855922578.0,-0.13623,0.110107,0.934814,-1.519084,-70.083969,-2.129771
855934469.0,-0.140381,0.0979,0.917969,-3.480916,-113.213737,-2.572519
855946360.0,-0.11377,0.093262,0.951416,-3.885496,-157.770996,-3.19084
855958248.0,-0.006348,0.085449,0.968018,-5.59542,-184.015274,-2.900763
855970136.0,0.248291,0.117432,1.037842,-9.206107,-130.885498,-3.312977
855982011.0,0.232422,0.091309,1.062744,-4.648855,-46.251907,-3.687023
855993893.0,0.047363,0.095215,0.915283,-1.396947,-40.564884,-3.259542
856005764.0,0.083984,0.10376,0.862793,-8.290076,-47.778625,-4.08397
856017637.0,0.114502,0.108154,0.977783,-8.061069,-44.625954,-3.664122
856029504.0,0.127197,0.093994,0.975586,-3.709924,-38.580154,-3.641221
856041369.0,0.111328,0.105469,0.938232,-3.603053,-36.511452,-3.244275
856053245.0,0.110352,0.10376,0.939941,-4.694656,-38.0,-4.122138
856065109.0,0.154297,0.106689,0.904053,-3.80916,-30.206106,-3.51145
856076970.0,0.15332,0.111084,0.879395,-2.175573,-19.923664,-2.954198
856088833.0,0.164795,0.104736,0.863525,-2.603053,-7.496183,-2.312977
856100707.0,0.142822,0.098877,0.950928,-2.145038,0.137405,-1.847328
856112565.0,0.14209,0.098389,0.941895,-1.816794,1.679389,-1.59542
856124426.0,0.145996,0.105225,0.887939,-1.473282,7.236641,-1.137405
856136291.0,0.162842,0.113037,0.873291,-1.145038,18.358778,-1.007634
856148154.0,0.141602,0.111816,0.928223,-1.335878,27.610687,-0.709924
856160010.0,0.098389,0.098389,1.002441,-1.312977,26.725191,-0.847328
856171865.0,0.099365,0.094482,1.000977,-1.259542,17.625954,-0.839695
856183715.0,0.086182,0.092773,0.956055,-1.068702,9.587787,-0.78626
856195574.0,0.096924,0.079346,0.953613,-1.19084,8.015267,-0.885496
856207435.0,-0.036133,0.210205,1.129883,-4.427481,-23.854961,-2.549618
856219330.0,0.107422,0.106934,0.897705,-2.580153,-22.274809,-2.236641
856231199.0,0.163574,0.121338,0.847168,-2.251908,-11.450381,-2.122137
856243065.0,0.117432,0.105225,0.946533,-0.954198,2.0,-1.900763
856254907.0,0.09082,0.100098,0.988037,-1.541985,-3.748092,-1.877863
856266772.0,0.099121,0.103271,0.968994,-2.290076,-5.068702,-2.045802
856278643.0,0.124512,0.095459,0.922852,-1.885496,-2.877863,-2.045802
856290507.0,0.107422,0.102051,0.941406,-1.816794,1.282443,-2.450382
856302367.0,0.093994,0.07959,0.961426,-1.709924,-0.458015,-2.564885
856314242.0,0.081543,0.093506,0.954102,-1.938931,-2.564885,-2.900763
856326108.0,0.13208,0.101318,0.959473,-2.977099,-0.633588,-2.48855
856337970.0,0.0979,0.095459,0.99292,-3.114504,-2.251908,-2.122137
856349833.0,0.103516,0.089355,0.926758,-2.557252,-5.29771,-1.877863
856361706.0,0.105469,0.108398,0.93457,-2.885496,-8.40458,-1.923664
856373574.0,0.114502,0.103271,0.955078,-2.305344,-9.022901,-1.51145
856385438.0,0.10376,0.10498,0.972168,-2.740458,-10.564885,-0.908397
856397310.0,0.137939,0.098633,0.944824,-2.839695,-11.114504,0.580153
856409173.0,0.148682,0.073975,0.918701,-1.70229,-6.167939,2.0
856421030.0,0.133057,0.11499,0.994629,-3.076336,-10.549619,4.625954
856432892.0,0.071289,0.073486,1.047852,-4.709924,-23.160305,4.442748
856444757.0,0.022705,0.054199,1.031494,-5.099236,-36.519085,-1.977099
856456631.0,0.126953,0.049805,0.952148,-4.0,-38.648853,-6.244275
856468504.0,0.25708,0.001709,0.784912,-5.122138,-35.038166,-16.229008
856480370.0,0.221924,-0.04126,0.914307,-7.732824,-24.32061,-24.541985
856492261.0,0.256348,-0.015625,0.878906,-9.496183,-8.183207,-32.992367
856504154.0,0.178223,0.045898,0.915283,-11.992367,-0.022901,-31.435114
856516031.0,0.12915,0.112549,1.018311,-17.648855,11.923664,-29.946566
856527892.0,0.119873,0.152344,1.044434,-21.900763,16.427481,-27.152672
856539758.0,0.183105,0.1604,1.026611,-21.801527,28.312977,-27.801527
856551619.0,0.141113,0.134521,0.944092,-17.709923,45.259541,-29.641222
856563476.0,0.129639,0.093262,0.998535,-16.740458,66.732826,-31.419847
856575336.0,0.113525,0.080078,1.166992,-7.954198,81.091606,-29.793894
856587191.0,0.117432,0.082275,1.27002,13.59542,71.366409,-28.030535
856599032.0,0.112061,0.059814,1.307861,39.648853,53.32061,-28.259542
856610868.0,0.084473,0.065186,1.224365,61.427483,43.053436,-27.030535
856622708.0,0.032959,0.103516,1.175293,76.671753,32.70229,-26.67939
856634548.0,0.018066,0.13208,1.134766,81.213737,17.625954,-23.687023
856646385.0,-0.008301,0.116211,1.133301,81.122139,0.541985,-19.236641
856658242.0,0.008545,0.153076,1.107422,84.954201,-18.38168,-18.854961
856670100.0,0.036377,0.131104,0.954346,95.114502,-18.122137,-19.458015
856681961.0,0.039307,0.166748,0.772461,103.625954,4.503817,-20.427481
856693800.0,0.006836,0.191406,0.666504,102.274811,27.770992,-19.977098
856705635.0,-0.010254,0.237305,0.567871,93.778625,29.519083,-16.564886
856717496.0,0.009521,0.293701,0.370361,78.549622,24.251909,-12.0
856729338.0,0.031006,0.297363,0.106934,59.931297,29.48855,-11.656488
856741182.0,0.042969,0.262939,-0.008057,27.977098,46.603054,-17.625954
856753039.0,-0.028076,0.247314,0.082031,-22.832062,61.877861,-26.450382
856764901.0,-0.104004,0.245117,0.230713,-80.442749,57.862595,-26.671755
856776768.0,-0.128418,0.225586,0.438232,-127.60305,27.977098,-20.51145
856788635.0,-0.137695,0.201416,0.705078,-164.396942,-3.435115,-15.351145
856800516.0,-0.159668,0.126221,0.966797,-189.343506,-26.839695,-12.442748
856812407.0,-0.195557,0.117676,1.29126,-185.519089,-52.267174,-4.717557
856824298.0,-0.151611,0.138184,1.42041,-153.854965,-75.381676,4.221374
856836173.0,-0.115479,0.030518,1.486572,-115.129768,-63.770992,9.160305
856848039.0,-0.047852,0.065918,1.669189,-81.267174,-56.129772,10.534351
856859901.0,0.075195,-0.019531,1.754395,-36.877861,-50.480915,12.580153
856871771.0,0.105957,-0.02417,1.655273,11.938931,-38.404579,8.412213
856883631.0,0.091553,0.0,1.515869,42.908398,-20.412214,7.763359
856895469.0,0.126465,-0.01001,1.43042,71.290077,-11.030535,4.038168
856907323.0,0.127686,0.027832,1.303955,95.770996,-12.374045,-0.145038
856919181.0,0.090332,0.06665,1.126465,109.893127,-25.045801,-1.908397
856931039.0,0.061523,0.104248,0.893066,109.519081,-32.938931,-3.839695
856942896.0,0.045898,0.157715,0.646973,100.412216,-22.931297,-3.801527
856954758.0,0.034424,0.162109,0.513184,87.793892,-4.740458,-3.755725
856966619.0,0.028564,0.179199,0.414551,69.053436,6.984733,-2.908397
856978454.0,0.037109,0.192139,0.246582,46.137405,21.885496,-4.465649
856990301.0,0.049072,0.237549,0.082764,18.045801,45.458015,-6.91603
857002148.0,0.06543,0.219727,0.034668,-19.29771,67.183205,-10.717557
857014003.0,0.055176,0.213623,0.104736,-62.114502,75.877861,-13.564885
857025852.0,-0.005615,0.125977,0.512451,-117.007637,50.045803,-16.824427
857037716.0,-0.097412,0.045654,0.911621,-168.786255,3.259542,-16.167938
857049581.0,-0.171387,0.027832,1.310303,-186.900757,-47.61832,-8.625955
857061476.0,-0.171387,0.053711,1.694092,-162.618317,-84.938934,1.89313
857073358.0,-0.074707,0.03418,1.853271,-110.60305,-84.167938,6.267176
857085234.0,0.033203,-0.012207,1.946289,-42.610687,-59.480915,7.282443
857097102.0,0.061768,0.019531,1.775391,28.87023,-28.534351,4.793893
857108939.0,0.036377,0.052002,1.563477,82.862595,-5.51145,2.763359
857120775.0,0.032471,0.05957,1.23877,113.35878,7.038168,4.274809
857132593.0,0.043213,0.066162,0.899658,124.129768,12.923664,6.015267
857144426.0,0.06543,0.115967,0.580811,119.274811,15.137404,7.603054
857156248.0,0.110596,0.143066,0.282715,98.664124,21.450382,4.625954
857168064.0,0.123047,0.158203,0.053711,62.328243,36.709923,-0.59542
857179901.0,0.106934,0.173584,0.02002,13.030535,49.396946,-5.59542
857191732.0,0.045654,0.150879,0.250244,-50.404579,30.832062,-6.022901
857203581.0,0.037109,0.102783,0.498779,-109.671753,-1.603053,-5.480916
857215446.0,0.000732,0.050293,0.843994,-146.068695,-28.954199,-4.885496
857227318.0,-0.020264,0.017334,1.264404,-151.030533,-45.870228,-2.89313
857239216.0,-0.025635,0.00293,1.682129,-123.633591,-51.839695,-2.587786
857251108.0,-0.007568,0.045654,1.836426,-68.893127,-48.648853,-2.938931
857262986.0,0.001953,0.019775,1.846436,0.503817,-28.312977,-4.396946
857274835.0,-0.014404,0.056396,1.673828,58.0,-5.21374,-3.305344
857286709.0,-0.018311,0.080078,1.384277,98.473282,7.007634,0.374046
857298548.0,-0.012451,0.061768,1.048584,116.160309,16.229008,3.580153
857310384.0,0.020508,0.102539,0.699951,116.648857,23.496183,6.21374
857322223.0,0.061768,0.166992,0.418701,102.938934,32.206108,5.580153
857334039.0,0.084229,0.166504,0.233887,74.60305,31.366413,4.137404
857345852.0,0.090088,0.156494,0.13623,30.748091,29.160305,0.557252
857357687.0,0.047852,0.163574,0.208984,-22.786259,18.954199,-3.412214
857369548.0,0.025635,0.121826,0.37085,-74.954201,0.0,-3.961832
857381402.0,-0.024902,0.095703,0.6521,-112.374046,-18.351145,-4.48855
857393298.0,-0.051025,0.06665,1.000488,-129.229004,-42.961834,-1.709924
857405182.0,-0.043457,0.027588,1.281006,-123.328247,-49.198475,1.48855
857417047.0,-0.031738,0.021484,1.565674,-91.068703,-46.328243,3.038168
857428908.0,-0.027832,0.072754,1.68457,-46.549618,-38.213741,4.19084
857440775.0,-0.016113,0.059326,1.620605,4.335878,-27.656488,5.984733
857452632.0,-0.03125,0.068604,1.475098,44.34351,-14.229008,10.145039
857464495.0,0.005371,0.037354,1.232666,71.053436,-5.335878,12.778625
857476337.0,0.042969,0.054687,0.963623,84.511452,2.083969,14.274809
857488164.0,0.051758,0.081787,0.704102,81.96183,7.038168,13.557252
857499974.0,0.063232,0.11499,0.47168,64.076332,11.076336,10.274809
857511796.0,0.05835,0.156982,0.30542,35.083969,19.343512,8.19084
857523621.0,0.026611,0.161865,0.227295,-2.977099,27.541985,7.244275
857535458.0,0.029297,0.194824,0.26709,-44.404579,34.603054,10.450381
857547298.0,0.04834,0.122803,0.469482,-83.022903,15.458015,14.969465
857559148.0,0.073975,0.001465,0.787354,-118.595421,-18.450382,10.229008
857571003.0,0.052246,-0.030273,1.1521,-139.694656,-51.664124,6.206107
857582870.0,0.021484,-0.050293,1.999939,-108.96183,-86.801529,1.114504
857594745.0,0.172852,0.026855,1.999939,15.129771,-100.916031,-1.740458
857606593.0,0.08374,-0.102783,1.327393,33.709923,38.351147,-3.282443
857618442.0,0.125488,0.125244,1.322754,47.511452,52.34351,4.267176
857630267.0,0.208252,-0.009033,1.138428,72.755722,27.610687,-3.038168
857642115.0,0.174072,0.025391,0.975342,80.71756,13.38168,-14.458015
857653959.0,0.086426,0.053223,0.762939,70.725189,6.534351,-16.091602
857665796.0,0.032227,0.103271,0.629883,56.38168,12.679389,-16.893129
857677635.0,-0.022949,0.126709,0.600586,40.404579,7.908397,-15.679389
857689496.0,-0.039063,0.159668,0.525635,20.793894,-0.335878,-12.847328
857701367.0,-0.057373,0.176514,0.512939,-2.648855,2.114504,-9.992367
857713241.0,-0.072021,0.168213,0.568115,-24.32061,1.21374,-6.282443
857725109.0,-0.081543,0.137207,0.678223,-43.519085,-4.549618,-3.877863
857736983.0,-0.073242,0.111572,0.839111,-58.488548,-15.007633,-0.473282
857748868.0,-0.072021,0.080566,0.998779,-63.122139,-26.603054,3.145038
857760733.0,-0.031982,0.091309,1.117188,-56.511452,-33.496181,6.473282
857772615.0,0.017578,0.069092,1.174072,-43.557251,-34.129772,8.267176
857784476.0,0.07959,0.04541,1.170898,-27.87023,-23.450382,7.70229
857796336.0,0.122314,0.040527,1.19458,-11.282443,-13.80916,3.908397
857808191.0,0.140381,0.026855,1.147705,1.221374,-9.068703,0.625954
857820033.0,0.141602,0.03418,1.043945,8.419847,-2.770992,-3.259542
857831894.0,0.101563,0.049316,1.000488,11.053435,-0.40458,-5.877862
857843756.0,0.080322,0.067627,0.93335,10.587787,-0.450382,-6.816794
857855614.0,0.04248,0.063965,0.908203,7.38168,-1.847328,-7.267176
857867470.0,0.010986,0.079834,0.897217,1.70229,-7.931298,-6.320611
857879330.0,0.00708,0.083008,0.882812,-4.160306,-12.763359,-4.450382
857891199.0,-0.007568,0.087891,0.907959,-8.015267,-15.656488,-2.259542
857903087.0,0.001465,0.083984,0.937988,-8.732824,-23.259542,-0.450382
857914962.0,0.029297,0.077637,0.944336,-8.503817,-27.404581,0.755725
857926826.0,0.044678,0.064453,0.951172,-8.442748,-27.267176,0.824427
857938692.0,0.052002,0.087158,0.945801,-8.320611,-24.526718,2.129771
857950549.0,0.069336,0.063965,0.972412,-6.496183,-19.351145,2.778626
857962406.0,0.070801,0.054443,1.024658,-3.877863,-15.488549,2.664122
857974265.0,0.031738,0.073486,1.062012,0.435115,-20.534351,3.374046
857986109.0,-0.01416,0.090088,1.049561,5.030534,-30.175573,6.557252
857997963.0,-0.063232,0.073486,1.020996,6.374046,-36.137405,12.335877
858009826.0,-0.113037,0.112061,1.008545,7.862596,-44.885498,20.977098
858021692.0,-0.125488,0.129639,0.965088,10.198473,-53.404579,32.167938
858033548.0,-0.124756,0.106201,0.921631,11.030535,-54.580154,42.473282
858045404.0,-0.097412,0.13208,0.891602,10.167939,-48.541985,53.419846
858057261.0,-0.0354,0.097168,0.894043,8.503817,-32.595421,62.801525
858069118.0,0.075928,0.078369,0.943359,9.862596,-25.290077,70.030533
858080959.0,0.197021,0.05249,0.971191,13.114504,-34.213741,71.175575
858092796.0,0.340332,0.005127,0.932617,11.435115,-37.64122,65.503815
858104635.0,0.459229,-0.012939,0.904541,7.21374,-40.221375,52.755726
858116497.0,0.533691,-0.016113,0.849121,1.572519,-34.251907,35.442749
858128359.0,0.586426,-0.035889,0.813232,-2.862595,-25.152672,17.114504
858140235.0,0.628906,-0.03125,0.765137,-8.114504,-5.259542,-1.358779
858152117.0,0.654053,-0.046387,0.778809,-17.282442,14.916031,-24.038168
858163977.0,0.592041,-0.064941,0.796631,-28.687023,17.80916,-50.969467
858175844.0,0.407959,-0.025879,0.815674,-39.160305,16.648855,-70.763359
858187715.0,0.179932,0.040283,0.864502,-46.816795,18.931297,-77.183205
858199573.0,-0.023193,0.076416,0.933594,-47.213741,24.213741,-71.541985
858211441.0,-0.170166,0.122803,1.000977,-39.786259,24.961832,-58.946564
858223312.0,-0.340088,0.145996,1.098633,-26.007633,18.893129,-46.015266
858235182.0,-0.488525,0.174561,1.162842,-12.435115,7.862596,-28.938931
858247047.0,-0.332031,0.084717,1.169434,1.183206,-8.717557,-6.259542
858258906.0,-0.226318,0.110352,1.105713,9.511451,-17.977098,7.045802
858270764.0,-0.204102,0.128662,0.998047,6.549618,-20.244274,32.244274
858282621.0,-0.102539,0.093994,0.913574,3.709924,-8.129771,50.847328
858294476.0,0.095215,0.026367,0.919434,6.740458,0.320611,61.122139
858306298.0,0.2854,-0.012939,0.950684,10.045801,-6.389313,61.290077
858318154.0,0.518311,-0.049316,0.913086,7.625954,-15.732824,49.068703
858330010.0,0.692383,-0.08252,0.893799,0.717557,-14.564885,28.816793
858341864.0,0.757324,-0.101563,0.886963,-4.625954,-4.824428,2.038168
858353729.0,0.523193,-0.039551,0.908203,-8.832061,12.045801,-12.40458
858365602.0,0.529785,-0.057861,0.946045,-10.587787,27.984734,-29.022902
858377476.0,0.446289,-0.084229,0.984619,-8.099236,22.32061,-48.625954
858389357.0,0.268311,0.019775,0.988037,-6.732824,8.580153,-64.381676
858401224.0,0.036133,0.062744,0.937256,-6.221374,1.541985,-69.335876
858413086.0,-0.234619,0.140381,0.921875,-5.656488,-2.503817,-63.70229
858424970.0,-0.471924,0.172852,0.913574,-2.10687,-3.984733,-44.061069
858436847.0,-0.588135,0.185059,0.887695,3.526718,-3.083969,-11.511451
858448715.0,-0.361328,0.14502,0.906738,4.977099,-6.160306,12.366412
858460573.0,-0.219238,0.143799,0.95874,2.343511,-13.938931,37.351147
858472435.0,0.002441,0.061768,1.000732,-1.175573,-21.610687,53.190838
858484298.0,0.332275,-0.029297,1.024658,0.412214,-20.519083,53.351147
858496155.0,0.593506,-0.095459,1.047852,3.221374,-20.38168,38.076336
858508013.0,0.715576,-0.102783,0.973877,1.183206,-12.526717,13.343512
858519870.0,0.381592,0.018066,0.903809,-5.137404,5.61832,-2.358779
858531716.0,0.400879,-0.043213,0.900146,-8.137404,21.32061,-6.633588
858543581.0,0.408691,-0.085449,0.935791,-7.229008,23.0,-25.51145
858555446.0,0.241699,-0.008057,0.95459,-7.862596,9.465649,-46.740459
858567317.0,0.021973,0.073242,0.950439,-7.938931,3.473282,-53.870228
858579175.0,-0.221191,0.159424,0.952393,-5.877862,4.51145,-43.648853
858591044.0,-0.405518,0.185547,0.936279,-0.656489,1.59542,-24.053434
858602904.0,-0.221924,0.069824,0.879883,5.122138,-2.572519,-7.435114
858614772.0,-0.070801,0.104492,0.885498,8.244275,-2.312977,-7.687023
858626643.0,-0.055176,0.117676,0.978516,6.076336,-5.91603,9.954199
858638503.0,0.123535,0.03418,1.031494,4.641222,-4.435114,26.854961
858650352.0,0.305908,-0.032715,1.014648,2.068702,2.480916,34.114502
858662196.0,0.486084,-0.030518,0.973633,-4.206107,2.732824,25.648855
858674047.0,0.519531,-0.045654,0.950928,-6.122138,6.175572,3.358779
858685901.0,0.157227,0.044678,0.966309,-6.167939,20.656488,6.564886
858697749.0,0.243408,0.016602,0.955566,-5.259542,23.465649,5.114504
858709582.0,0.297119,-0.037109,0.951172,-7.48855,20.732824,-8.496183
858721454.0,0.206787,-0.032959,0.966797,-9.519084,8.022901,-28.343512
858733330.0,0.038818,0.083984,0.967285,-6.91603,-3.534351,-41.625954
858745211.0,-0.174561,0.124756,0.90625,-2.740458,-4.465649,-40.824429
858757100.0,-0.344971,0.167969,0.91748,0.526718,-5.648855,-24.427481
858768969.0,-0.189941,0.067627,0.886963,4.21374,-13.435115,-7.725191
858780833.0,-0.035156,0.091553,0.886475,6.29771,-16.259542,-9.396947
858792706.0,-0.023193,0.075928,0.971191,3.694656,-9.992367,4.870229
858804564.0,0.089111,0.04834,1.053223,2.137405,4.450382,21.015266
858816380.0,0.202881,0.033691,1.015625,-0.412214,10.778625,33.015266
858828229.0,0.370117,-0.020264,0.958008,-2.656489,6.076336,30.51145
858840085.0,0.492676,-0.055908,0.955566,-5.671756,1.839695,11.206107
858851938.0,0.142822,0.047119,0.995117,-6.038168,12.129771,6.793893
858863777.0,0.1604,0.011719,0.990234,-5.839694,17.67939,9.022901
858875620.0,0.188477,-0.010254,0.937988,-5.534351,21.755726,0.503817
858887476.0,0.13623,0.009277,0.931885,-5.625954,18.282442,-15.282443
858899336.0,0.013672,0.070312,0.952393,-4.816794,3.931298,-25.549618
858911190.0,-0.114502,0.131104,0.920166,-3.412214,-4.305344,-23.38168
858923077.0,-0.188721,0.142334,0.913086,0.145038,-5.312977,-10.068703
858934955.0,0.068848,0.03418,0.908203,2.10687,-7.206107,-4.503817
858946814.0,0.099609,0.073242,0.916504,4.21374,-10.236641,-5.770992
858958675.0,0.119141,0.054932,0.939209,5.389313,-10.679389,-3.068702
858970538.0,0.112061,0.023926,0.977051,5.320611,-4.534351,-2.137405
858982387.0,0.094971,0.017334,0.987305,5.022901,6.091603,-1.862595
858994235.0,0.07666,0.012695,1.011963,2.29771,8.832061,-1.183206
859006076.0,0.054687,0.041992,0.997803,-1.450382,9.068703,-1.59542
859017921.0,0.072266,0.04126,0.973389,-3.641221,8.267176,-1.40458
859029774.0,0.076904,0.042236,0.945557,-4.0,11.282443,-1.068702
859041630.0,0.068359,0.047852,0.984619,-4.419847,11.519084,-0.236641
859053494.0,0.074707,0.043213,0.95874,-6.923664,14.0,0.068702
859065330.0,0.091553,0.047607,0.941406,-6.587786,30.984734,-0.267176
859077191.0,0.072754,0.046631,0.932373,-4.625954,53.480915,-1.770992
859089044.0,0.059082,0.034424,0.941162,-3.51145,72.290077,-2.717557
859100900.0,0.025879,0.043213,0.99585,-5.709924,89.458015,-4.21374
859112763.0,0.01001,0.047607,1.009766,-8.954199,108.190842,-6.717557
859124620.0,-0.001221,0.028809,0.974854,-11.274809,140.083969,-10.221375
859136496.0,-0.016846,0.051758,0.974854,-11.435115,176.725189,-12.954199
859148367.0,-0.052002,0.054443,0.966797,-13.19084,210.396942,-15.015267
859160241.0,-0.0896,0.081787,0.942627,-13.664123,234.549622,-14.748092
859172107.0,-0.203369,0.068848,0.953857,-15.496183,250.129776,-17.885496
859183973.0,-0.231445,0.052246,0.896973,-16.557251,250.129776,-21.801527
859195836.0,-0.322266,0.040283,0.833496,-15.679389,250.129776,-33.778625
859207708.0,-0.335205,-0.022705,0.843506,-9.106871,250.129776,-40.091602
859219588.0,-0.517334,0.093994,0.75293,-4.801527,250.129776,-49.34351
859231468.0,-0.578613,-0.001953,0.810547,-6.030534,250.129776,-58.793892
859243360.0,-0.680664,0.009766,0.782471,-9.465649,250.129776,-65.587784
859255236.0,-0.738281,-0.024902,0.686279,-11.984733,250.129776,-73.564888
859267118.0,-0.789307,-0.05835,0.61792,-10.984733,250.129776,-79.160309
859279003.0,-0.845947,-0.034668,0.560303,-9.488549,250.129776,-83.748093
859290895.0,-0.851807,-0.028564,0.487549,-6.358778,250.129776,-83.908394
859302782.0,-0.825928,-0.013916,0.453125,-3.282443,250.129776,-77.458015
859314675.0,-0.814941,-0.062012,0.426025,-4.167939,250.129776,-65.534348
859326564.0,-0.838379,-0.120605,0.410889,-8.908397,187.267181,-54.541985
859338444.0,-0.895996,-0.096191,0.485107,-18.32061,96.931297,-42.65649
859350336.0,-0.959717,-0.119629,0.585449,-26.786259,-30.0,-31.916031
859362243.0,-1.042725,-0.056152,0.634521,-29.137405,-179.801529,-23.847328
859374149.0,-1.011963,-0.066162,0.634033,-24.70229,-250.137405,-19.984734
859386047.0,-0.905762,-0.097656,0.424561,-12.702291,-250.137405,-22.67939
859397941.0,-0.84082,-0.124268,0.445068,-5.664122,-250.137405,-25.412214
859409839.0,-0.843506,-0.185547,0.51709,-5.946565,-250.137405,-34.664124
859421745.0,-0.827881,-0.056396,0.347412,-12.610687,-250.137405,-38.648853
859433649.0,-0.728516,-0.059082,0.304443,-23.328245,-250.137405,-29.862595
859445557.0,-0.686768,-0.057617,0.40918,-37.030533,-250.137405,-12.557252
859457468.0,-0.543701,-0.095459,0.640869,-46.236641,-250.137405,4.061069
859469360.0,-0.334473,-0.150879,0.6875,-44.938931,-250.137405,15.847328
859481248.0,-0.154053,-0.230713,0.788818,-33.335876,-250.137405,15.923664
859493136.0,-0.042969,-0.264648,0.846191,-15.030535,-250.137405,4.725191
859505032.0,-0.018799,-0.202637,0.765381,-0.290076,-250.137405,-5.320611
859516931.0,-0.059326,-0.219727,0.866455,12.473283,-250.137405,-5.21374
859528826.0,0.015625,-0.207275,0.902344,31.305344,-205.893127,-11.19084
859540701.0,0.115234,-0.208252,0.788818,41.549618,-112.786263,-20.221375
859552573.0,0.104004,-0.271729,0.796631,38.885498,-16.587786,-26.908398
859564438.0,0.131836,-0.213379,0.793457,52.755726,79.328247,-29.305344
859576298.0,0.068604,-0.121338,0.846924,62.366413,175.702286,-28.335878
859588154.0,0.038086,-0.101318,0.878906,73.465652,250.129776,-26.946566
859600010.0,-0.01123,-0.112061,0.906494,83.122139,250.129776,-23.740458
859611892.0,-0.125,-0.106689,0.888916,89.839691,250.129776,-21.282442
859623764.0,-0.222168,-0.060059,0.859619,94.541985,250.129776,-18.404581
859635637.0,-0.293213,-0.02417,0.867432,100.274811,250.129776,-15.114504
859647504.0,-0.385986,-0.000732,0.891602,98.213737,250.129776,-8.007633
859659372.0,-0.48877,0.045898,0.920166,86.053436,250.129776,-3.114504
859671232.0,-0.616455,0.044678,0.914551,63.9771,250.129776,-0.175573
859683086.0,-0.898193,0.090576,1.11792,33.183205,229.396942,2.954198
859694915.0,-1.055176,0.100342,1.129883,-13.709924,82.916031,8.099236
859706766.0,-0.827148,0.101807,0.837646,-38.145039,-0.923664,4.748092
859718635.0,-0.726562,0.03833,0.716064,-44.900764,-43.526718,-0.251908
859730515.0,-0.675781,0.034424,0.682129,-44.175571,-71.442749,0.526718
859742382.0,-0.660645,0.046631,0.690674,-40.893131,-105.618324,1.961832
859754261.0,-0.645264,0.035645,0.815186,-43.290077,-160.534348,8.656488
859766128.0,-0.631592,0.088623,0.89502,-49.213741,-243.679382,18.19084
859777991.0,-0.602295,-0.013428,0.820312,-58.70229,-250.137405,26.458015
859789874.0,-0.549805,-0.152588,0.634766,-66.732826,-250.137405,29.67939
859801763.0,-0.47998,-0.207275,0.656006,-61.709923,-250.137405,29.732824
859813650.0,-0.330566,-0.115479,0.687988,-40.129772,-250.137405,27.70229
859825539.0,-0.209473,-0.072998,0.744629,-19.198473,-250.137405,22.12977
859837435.0,-0.130127,-0.068848,0.778076,-5.08397,-250.137405,16.900763
859849330.0,-0.072021,-0.078369,0.860596,8.977099,-231.305344,11.885496
859861211.0,-0.02832,-0.071289,0.84668,20.351145,-161.450378,4.198473
859873085.0,-0.002441,-0.055908,0.846924,28.274809,-74.511452,-5.51145
859884970.0,0.007568,-0.063721,0.895996,35.534351,8.221375,-15.129771
859896832.0,-0.006592,-0.042969,0.892334,40.511452,78.541985,-22.786259
859908705.0,-0.011475,-0.052246,0.873291,46.580154,138.870224,-27.076336
859920574.0,-0.05249,-0.063721,0.881836,54.900764,200.35878,-30.87023
859932438.0,-0.121338,-0.053467,0.896729,64.122139,250.129776,-37.770992
859944310.0,-0.229248,0.027588,1.04541,66.473282,250.129776,-40.450382
859956171.0,-0.302734,0.112549,1.195801,45.938931,250.129776,-36.0229
859968030.0,-0.386475,0.164795,1.19458,19.80916,220.946564,-27.328245
859979892.0,-0.351074,0.118164,0.984863,-3.816794,185.725189,-22.893129
859991764.0,-0.431396,0.04126,0.887695,-6.534351,177.137405,-20.893129
860003635.0,-0.434814,0.012939,0.797363,-2.167939,179.916031,-21.557251
860015504.0,-0.48584,0.030762,0.799805,-1.526718,172.870224,-23.305344
860027370.0,-0.502197,0.027588,0.779541,0.847328,165.419846,-24.015266
860039234.0,-0.506836,0.023437,0.787598,1.328244,154.961838,-21.725191
860051091.0,-0.54126,0.026611,0.855225,-2.259542,124.618324,-15.557252
860062963.0,-0.552246,0.012939,0.800781,-9.847328,84.076332,-7.954198
860074833.0,-0.603271,0.010254,0.752197,-14.137404,44.435116,-1.862595
860086707.0,-0.61084,0.021973,0.753418,-16.083969,5.412214,3.419847
860098567.0,-0.57959,0.002197,0.721924,-17.786259,-29.351145,8.946565
860110436.0,-0.602295,-0.045898,0.668213,-15.564885,-47.366413,10.80916
860122330.0,-0.627441,-0.030518,0.671143,-6.89313,-48.694656,9.343512
860134229.0,-0.62207,-0.002686,0.686768,2.10687,-41.480915,4.51145
860146101.0,-0.588623,0.016602,0.74707,7.458015,-31.847328,-0.70229
860157969.0,-0.565674,0.016846,0.791992,7.114504,-32.580154,-1.229008
860169833.0,-0.556152,0.025635,0.791748,4.312977,-36.404579,-1.51145
860181706.0,-0.544922,0.013184,0.785156,3.435115,-33.519085,-2.038168
860193579.0,-0.546143,0.006836,0.770508,4.534351,-22.770992,-3.770992
860205444.0,-0.520508,0.004883,0.772461,7.007634,-0.030534,-6.442748
860217309.0,-0.512207,0.017578,0.790771,9.267176,26.366413,-7.992366
860229173.0,-0.522949,0.014648,0.794678,9.893129,48.312977,-8.496183
860241030.0,-0.549316,0.029541,0.82251,7.51145,61.259541,-8.740458
860252892.0,-0.576172,0.036621,0.809082,3.755725,66.984734,-9.152672
860264757.0,-0.582764,0.01709,0.780273,1.274809,71.671753,-8.984733
860276619.0,-0.590088,0.019043,0.752686,1.068702,78.954201,-8.923664
860288476.0,-0.601807,0.013428,0.739746,0.610687,84.129768,-9.847328
860300335.0,-0.606201,0.039063,0.749268,-0.824427,85.984734,-8.534351
860312222.0,-0.624023,0.041748,0.768555,-4.503817,83.0,-6.931298
860324097.0,-0.646484,0.018555,0.725098,-9.015267,79.770996,-5.221374
860335969.0,-0.685059,0.000977,0.787842,-10.526717,80.28244,-5.580153
860347833.0,-0.691162,0.048096,0.666992,-13.450381,85.419846,-6.267176
860359707.0,-0.685303,0.001221,0.649658,-11.725191,93.824425,-7.78626
860371574.0,-0.688232,-0.002686,0.646484,-9.648855,95.732826,-7.198473
860383469.0,-0.723633,0.016846,0.608887,-9.274809,91.122139,-7.38168
860395338.0,-0.726074,0.023926,0.564941,-7.572519,89.137405,-7.076336
860407224.0,-0.610596,0.055908,0.479736,7.137404,130.450378,-2.839695
860419076.0,-0.673828,-0.013672,0.552734,23.816793,176.503815,1.969466
860430932.0,-0.908936,-0.021973,0.623535,18.847328,179.961838,-2.832061
860442806.0,-0.919922,0.028076,0.602051,12.007633,178.854965,-7.923664
860454658.0,-0.879639,0.011963,0.523193,5.450382,172.496185,-13.0
860466509.0,-0.872314,0.011719,0.506836,-1.648855,156.106873,-13.221375
860478374.0,-0.860596,0.013672,0.437256,-6.29771,138.152664,-11.80916
860490245.0,-0.872803,0.011963,0.342285,-5.145038,129.931305,-9.778625
860502115.0,-0.867676,0.005615,0.354004,-3.603053,119.496185,-7.480916
860513974.0,-0.897949,0.006104,0.385498,-6.694656,95.992363,-3.862595
860525839.0,-0.920898,0.015869,0.305176,-8.465649,79.832062,-1.0
860537709.0,-0.924561,0.006836,0.270996,-5.343512,77.534348,-1.480916
860549574.0,-0.941895,0.014404,0.281982,-3.167939,76.03817,-2.648855
860561438.0,-0.957764,0.004395,0.302002,-3.977099,68.183205,-4.137404
860573310.0,-0.943604,0.005371,0.264893,-5.29771,56.419846,-3.770992
860585182.0,-0.916504,0.009766,0.225342,-4.320611,50.122139,-2.603053
860597044.0,-0.936279,-0.001953,0.234375,-2.877863,49.35878,-2.290076
860608916.0,-0.938721,0.001465,0.228271,-2.412214,48.450382,-1.068702
860620785.0,-0.946777,-0.000488,0.231445,-2.221374,47.961834,-1.351145
860632686.0,-0.960449,-0.002686,0.236572,-3.40458,45.083969,-1.656489
860644573.0,-0.962646,0.003174,0.219482,-4.366412,40.038166,-1.076336
860656438.0,-0.962891,0.005127,0.192139,-3.870229,35.137405,-1.519084
860668313.0,-0.962402,0.003174,0.186279,-3.274809,27.954199,-1.091603
860680182.0,-0.96167,-0.000732,0.17334,-2.557252,19.748091,-0.396947
860692063.0,-0.96167,0.003906,0.169922,-2.40458,11.725191,-0.366412
860703933.0,-0.977051,-0.003174,0.168701,-1.450382,6.954198,-0.603053
860715827.0,-0.969482,0.010254,0.17041,-1.305344,2.519084,-0.961832
860727704.0,-0.954834,0.00708,0.175537,-0.748092,-1.51145,-0.89313
