RX_ESP_elapsed_us,PC_time_us,UTC_Date,UTC_Time,AccX,AccY,AccZ,GyroX,GyroY,GyroZ,MagX,MagY,MagZ,Temp,Roll,Pitch,Yaw,Lat,Lng,Speed_kmph,Alt_meters,Satellites,HDOP,Heading
10147731,1766326442105495,0,0,-0.000468,0.000931,1.004514,0.007126,-0.051682,-0.00766,0.0,0.0,0.0,25.18,0.04,0.03,180.0,0.0,0.0,0.0,0.0,0,99.99,0.0
10174731,1766326442132495,0,0,-0.000285,0.000748,1.003294,-0.015762,-0.036423,-0.00766,0.0,0.0,0.0,25.18,0.04,0.02,180.0,0.0,0.0,0.0,0.0,0,99.99,0.0
10200731,1766326442158495,0,0,-0.000102,-0.00029,1.003843,-0.000503,-0.005905,-0.030548,0.0,0.0,0.0,25.18,-0.01,0.01,180.0,0.0,0.0,0.0,0.0,0,99.99,0.0
10226730,1766326442184494,0,0,-0.001079,-0.000229,1.002683,-0.008133,-0.036423,-3.1e-05,0.0,0.0,0.0,25.18,-0.0,0.06,180.0,0.0,0.0,0.0,0.0,0,99.99,0.0
10255739,1766326442213503,0,0,-0.000957,-4.6e-05,1.003782,-0.008133,-0.021164,-0.038177,0.0,0.0,0.0,25.19,-0.01,0.05,180.0,0.0,0.0,0.0,0.0,0,99.99,0.0
10284730,1766326442242494,0,0,-0.000468,-0.000473,1.00366,0.014755,-0.021164,-3.1e-05,0.0,0.0,0.0,25.2,-0.02,0.04,180.0,0.0,0.0,0.0,0.0,0,99.99,0.0
10310980,1766326442268744,0,0,-0.000774,-0.000595,1.003538,0.014755,-0.021164,-0.015289,0.0,0.0,0.0,25.19,-0.03,0.04,180.0,0.0,0.0,0.0,0.0,0,99.99,0.0
10341730,1766326442299494,0,0,-0.000529,0.000199,1.002378,-0.008133,0.009354,-0.022919,0.0,0.0,0.0,25.19,0.0,0.02,180.0,0.0,0.0,0.0,0.0,0,99.99,0.0
10367730,1766326442325494,0,0,-0.000957,0.000199,1.002561,0.037643,0.016983,-0.015289,0.0,0.0,0.0,25.19,0.0,0.05,180.0,0.0,0.0,0.0,0.0,0,99.99,0.0
10394730,1766326442352494,0,0,-0.000529,0.000687,1.003049,0.007126,-0.013535,0.022858,0.0,0.0,0.0,25.18,0.05,0.05,180.0,0.0,0.0,0.0,0.0,0,99.99,0.0
10420732,1766326442378496,0,0,-0.000651,0.000199,1.004087,-0.008133,-0.013535,-0.00766,0.0,0.0,0.0,25.18,0.01,0.03,180.0,0.0,0.0,0.0,0.0,0,99.99,0.0
10446734,1766326442404498,0,0,-0.000102,1.6e-05,1.003538,0.030014,-0.005905,-0.015289,0.0,0.0,0.0,25.18,0.01,0.0,180.0,0.0,0.0,0.0,0.0,0,99.99,0.0
10490738,1766326442448502,0,0,-0.000957,0.000931,1.004331,-0.008133,-0.028793,0.015228,0.0,0.0,0.0,25.19,0.05,0.06,180.0,0.0,0.0,0.0,0.0,0,99.99,0.0
10517731,1766326442475495,0,0,-0.000774,0.00087,1.005125,-0.023392,-0.044052,-3.1e-05,0.0,0.0,0.0,25.19,0.05,0.05,180.0,0.0,0.0,0.0,0.0,0,99.99,0.0
10544737,1766326442502501,0,0,-0.00114,0.000138,1.004148,-0.03865,-0.021164,-0.00766,0.0,0.0,0.0,25.19,0.01,0.08,180.0,0.0,0.0,0.0,0.0,0,99.99,0.0
10569731,1766326442527495,0,0,-0.00059,-0.000229,1.003904,-0.015762,-0.028793,0.022858,0.0,0.0,0.0,25.19,-0.0,0.05,180.0,0.0,0.0,0.0,0.0,0,99.99,0.0
10595730,1766326442553494,0,0,-0.001018,-0.000412,1.002927,-0.031021,-0.028793,0.022858,0.0,0.0,0.0,25.19,-0.03,0.05,180.0,0.0,0.0,0.0,0.0,0,99.99,0.0
10620733,1766326442578497,0,0,-0.000713,-0.000412,1.002988,-0.008133,-0.005905,-3.1e-05,0.0,0.0,0.0,25.18,-0.03,0.05,180.0,0.0,0.0,0.0,0.0,0,99.99,0.0
10647731,1766326442605495,0,0,-0.000102,7.7e-05,1.004026,0.014755,-0.028793,0.007599,0.0,0.0,0.0,25.19,-0.0,0.01,180.0,0.0,0.0,0.0,0.0,0,99.99,0.0
10673732,1766326442631496,0,0,-0.000713,0.000565,1.003232,-0.000503,-0.021164,-3.1e-05,0.0,0.0,0.0,25.19,0.02,0.06,180.0,0.0,0.0,0.0,0.0,0,99.99,0.0
10700731,1766326442658495,0,0,-0.000346,0.000748,1.002988,-0.015762,-0.005905,-0.00766,0.0,0.0,0.0,25.19,0.04,0.0,180.0,0.0,0.0,0.0,0.0,0,99.99,0.0
10725731,1766326442683495,0,0,-0.000224,0.000931,1.002866,-0.015762,-0.005905,0.015228,0.0,0.0,0.0,25.19,0.06,0.01,180.0,0.0,0.0,0.0,0.0,0,99.99,0.0
10753730,1766326442711494,0,0,-0.000224,0.000565,1.004148,-0.000503,0.001724,0.030487,0.0,0.0,0.0,25.19,0.04,0.02,180.0,0.0,0.0,0.0,0.0,0,99.99,0.0
10779730,1766326442737494,0,0,-0.000774,0.00026,1.003843,0.007126,-0.005905,0.015228,0.0,0.0,0.0,25.19,0.0,0.03,180.0,0.0,0.0,0.0,0.0,0,99.99,0.0
10797730,1766326442755494,0,0,-0.001262,0.00026,1.00427,-0.000503,0.001724,0.015228,0.0,0.0,0.0,25.19,0.01,0.07,180.0,0.0,0.0,0.0,0.0,0,99.99,0.0
10822730,1766326442780494,0,0,-0.000102,0.000626,1.003599,-0.061539,-0.028793,-0.038177,0.0,0.0,0.0,25.19,0.04,0.01,180.0,0.0,0.0,0.0,0.0,0,99.99,0.0
10847731,1766326442805495,0,0,-0.000835,0.000199,1.003599,-0.031021,-0.036423,-0.022919,0.0,0.0,0.0,25.19,0.0,0.03,180.0,0.0,0.0,0.0,0.0,0,99.99,0.0
10889730,1766326442847494,0,0,-0.000529,0.000626,1.003355,-0.031021,-0.028793,0.030487,0.0,0.0,0.0,25.18,0.04,0.03,180.0,0.0,0.0,0.0,0.0,0,99.99,0.0
10916730,1766326442874494,0,0,-0.000346,0.000199,1.00366,-0.031021,-0.028793,0.015228,0.0,0.0,0.0,25.19,-0.0,0.02,180.0,0.0,0.0,0.0,0.0,0,99.99,0.0
10942730,1766326442900494,0,0,-0.000102,0.00026,1.003599,-0.015762,0.009354,-0.00766,0.0,0.0,0.0,25.19,0.01,0.02,180.0,0.0,0.0,0.0,0.0,0,99.99,0.0
10970730,1766326442928494,0,0,-0.000407,0.000199,1.002317,-0.000503,-0.021164,0.007599,0.0,0.0,0.0,25.19,0.01,0.02,180.0,0.0,0.0,0.0,0.0,0,99.99,0.0
10997731,1766326442955495,0,0,-0.00059,0.000626,1.002561,0.022385,0.009354,-3.1e-05,0.0,0.0,0.0,25.19,0.03,0.04,180.0,0.0,0.0,0.0,0.0,0,99.99,0.0
11025731,1766326442983495,0,0,-0.00059,0.000321,1.002683,0.030014,0.001724,-0.00766,0.0,0.0,0.0,25.19,0.02,0.03,180.0,0.0,0.0,0.0,0.0,0,99.99,0.0
11052730,1766326443010494,0,0,-0.000285,0.001236,1.003049,-0.008133,-0.036423,-0.030548,0.0,0.0,0.0,25.19,0.07,0.02,180.0,0.0,0.0,0.0,0.0,0,99.99,0.0
11077732,1766326443035496,0,0,0.000569,0.000382,1.00366,-0.008133,0.001724,-0.030548,0.0,0.0,0.0,25.19,0.03,-0.04,180.0,0.0,0.0,0.0,0.0,0,99.99,0.0
11095737,1766326443053501,0,0,2e-05,0.000382,1.00366,0.007126,-0.013535,-0.030548,0.0,0.0,0.0,25.19,0.02,0.0,180.0,0.0,0.0,0.0,0.0,0,99.99,0.0
11122731,1766326443080495,0,0,-0.000774,-0.000412,1.003721,0.007126,-0.021164,-0.015289,0.0,0.0,0.0,25.19,-0.03,0.04,180.0,0.0,0.0,0.0,0.0,0,99.99,0.0
11148730,1766326443106494,0,0,-0.001018,0.000443,1.00427,-0.031021,0.001724,-3.1e-05,0.0,0.0,0.0,25.19,0.02,0.06,180.0,0.0,0.0,0.0,0.0,0,99.99,0.0
11174730,1766326443132494,0,0,-0.000713,0.00087,1.003538,-0.031021,-0.036423,-3.1e-05,0.0,0.0,0.0,25.19,0.06,0.03,180.0,0.0,0.0,0.0,0.0,0,99.99,0.0
11200731,1766326443158495,0,0,-0.000957,0.000565,1.00311,-0.04628,-0.059311,-0.00766,0.0,0.0,0.0,25.2,0.02,0.04,180.0,0.0,0.0,0.0,0.0,0,99.99,0.0
11226731,1766326443184495,0,0,-0.001262,0.000687,1.002866,-0.04628,-0.021164,0.015228,0.0,0.0,0.0,25.2,0.05,0.09,180.0,0.0,0.0,0.0,0.0,0,99.99,0.0
11246731,1766326443204495,0,0,-0.001384,0.000809,1.002378,-0.008133,-0.013535,0.022858,0.0,0.0,0.0,25.2,0.04,0.09,180.0,0.0,0.0,0.0,0.0,0,99.99,0.0
11272730,1766326443230494,0,0,0.000264,0.000565,1.004026,0.014755,-0.005905,0.030487,0.0,0.0,0.0,25.19,0.03,-0.0,180.0,0.0,0.0,0.0,0.0,0,99.99,0.0
11314737,1766326443272501,0,0,-0.000224,0.000687,1.003843,0.014755,0.009354,0.015228,0.0,0.0,0.0,25.19,0.02,0.01,180.0,0.0,0.0,0.0,0.0,0,99.99,0.0
11342731,1766326443300495,0,0,0.000569,0.000809,1.002683,0.007126,-0.036423,0.038116,0.0,0.0,0.0,25.18,0.06,-0.03,180.0,0.0,0.0,0.0,0.0,0,99.99,0.0
11368733,1766326443326497,0,0,-0.000224,0.000321,1.002012,-0.023392,-0.036423,0.030487,0.0,0.0,0.0,25.19,0.02,0.01,180.0,0.0,0.0,0.0,0.0,0,99.99,0.0
11394731,1766326443352495,0,0,-0.000407,0.000687,1.002988,0.007126,-0.06694,0.022858,0.0,0.0,0.0,25.2,0.04,0.02,180.0,0.0,0.0,0.0,0.0,0,99.99,0.0
11419734,1766326443377498,0,0,-0.000896,0.000565,1.003599,0.007126,-0.036423,0.053375,0.0,0.0,0.0,25.19,0.04,0.05,180.0,0.0,0.0,0.0,0.0,0,99.99,0.0
11446730,1766326443404494,0,0,-0.00114,0.000992,1.00366,0.007126,-0.021164,0.022858,0.0,0.0,0.0,25.2,0.05,0.07,180.0,0.0,0.0,0.0,0.0,0,99.99,0.0
11471731,1766326443429495,0,0,-0.000651,0.001236,1.003171,-0.000503,-0.013535,-3.1e-05,0.0,0.0,0.0,25.2,0.09,0.04,180.0,0.0,0.0,0.0,0.0,0,99.99,0.0
11497730,1766326443455494,0,0,-0.00059,0.000809,1.002683,-0.008133,-0.036423,-3.1e-05,0.0,0.0,0.0,25.19,0.04,0.05,180.0,0.0,0.0,0.0,0.0,0,99.99,0.0
11522732,1766326443480496,0,0,-0.000346,0.00026,1.003599,-0.008133,-0.021164,-0.00766,0.0,0.0,0.0,25.19,0.03,0.01,180.0,0.0,0.0,0.0,0.0,0,99.99,0.0
11540731,1766326443498495,0,0,-0.000224,-4.6e-05,1.003232,-0.015762,-0.021164,-0.015289,0.0,0.0,0.0,25.19,-0.02,0.02,180.0,0.0,0.0,0.0,0.0,0,99.99,0.0
11566730,1766326443524494,0,0,-0.000346,0.000321,1.003232,0.022385,-0.044052,-0.022919,0.0,0.0,0.0,25.21,0.03,0.03,180.0,0.0,0.0,0.0,0.0,0,99.99,0.0
11592980,1766326443550744,0,0,-0.000285,0.000199,1.003171,0.030014,-0.005905,-0.022919,0.0,0.0,0.0,25.2,0.01,0.02,180.0,0.0,0.0,0.0,0.0,0,99.99,0.0
11617730,1766326443575494,0,0,-0.000651,0.000748,1.002683,0.007126,-0.005905,0.022858,0.0,0.0,0.0,25.2,0.04,0.04,180.0,0.0,0.0,0.0,0.0,0,99.99,0.0
11643730,1766326443601494,0,0,-0.001079,0.001114,1.003171,-0.015762,-0.021164,0.038116,0.0,0.0,0.0,25.2,0.07,0.06,180.0,0.0,0.0,0.0,0.0,0,99.99,0.0
11676732,1766326443634496,0,0,-0.000774,0.000565,1.003416,0.007126,-0.036423,0.022858,0.0,0.0,0.0,25.2,0.03,0.05,180.0,0.0,0.0,0.0,0.0,0,99.99,0.0
11742738,1766326443700502,0,0,-0.001079,0.000809,1.003171,0.030014,-0.051682,0.007599,0.0,0.0,0.0,25.2,0.05,0.06,180.0,0.0,0.0,0.0,0.0,0,99.99,0.0
11769730,1766326443727494,0,0,-0.000835,0.000321,1.004819,0.052902,-0.013535,0.068634,0.0,0.0,0.0,25.2,0.0,0.05,180.0,0.0,0.0,0.0,0.0,0,99.99,0.0
11794731,1766326443752495,0,0,-0.001384,0.000992,1.003416,0.022385,-0.005905,0.053375,0.0,0.0,0.0,25.2,0.07,0.08,180.0,0.0,0.0,0.0,0.0,0,99.99,0.0
11823730,1766326443781494,0,0,-0.000957,0.000565,1.003232,-0.000503,-0.021164,0.030487,0.0,0.0,0.0,25.2,0.02,0.05,180.0,0.0,0.0,0.0,0.0,0,99.99,0.0
11848732,1766326443806496,0,0,-0.000896,0.000565,1.003599,0.014755,-0.005905,0.030487,0.0,0.0,0.0,25.2,0.03,0.05,180.0,0.0,0.0,0.0,0.0,0,99.99,0.0
11874730,1766326443832494,0,0,-0.001018,0.001297,1.00366,0.007126,-0.013535,-3.1e-05,0.0,0.0,0.0,25.2,0.09,0.05,180.0,0.0,0.0,0.0,0.0,0,99.99,0.0
11899730,1766326443857494,0,0,-0.000774,0.001297,1.004026,-0.008133,-0.013535,-0.00766,0.0,0.0,0.0,25.21,0.08,0.06,180.0,0.0,0.0,0.0,0.0,0,99.99,0.0
11925732,1766326443883496,0,0,-0.000774,0.001419,1.003355,-0.008133,-0.005905,-0.030548,0.0,0.0,0.0,25.2,0.09,0.04,180.0,0.0,0.0,0.0,0.0,0,99.99,0.0
11950732,1766326443908496,0,0,-0.001018,-4.6e-05,1.002561,-0.000503,-0.044052,-0.015289,0.0,0.0,0.0,25.2,-0.0,0.06,180.0,0.0,0.0,0.0,0.0,0,99.99,0.0
11997730,1766326443955494,0,0,-0.00114,0.000443,1.00189,-0.015762,-0.005905,-0.022919,0.0,0.0,0.0,25.2,0.03,0.07,180.0,0.0,0.0,0.0,0.0,0,99.99,0.0
12023980,1766326443981744,0,0,-0.001201,0.000504,1.00427,-0.015762,-0.021164,-0.00766,0.0,0.0,0.0,25.2,0.02,0.06,180.0,0.0,0.0,0.0,0.0,0,99.99,0.0
12049731,1766326444007495,0,0,-0.000651,0.000626,1.003965,-0.015762,-0.028793,-3.1e-05,0.0,0.0,0.0,25.2,0.04,0.04,180.0,0.0,0.0,0.0,0.0,0,99.99,0.0
12075731,1766326444033495,0,0,-0.000163,0.000687,1.003232,-0.03865,-0.036423,-0.061066,0.0,0.0,0.0,25.2,0.05,0.0,180.0,0.0,0.0,0.0,0.0,0,99.99,0.0
12100732,1766326444058496,0,0,-0.000163,0.000382,1.002805,-0.000503,-0.051682,0.007599,0.0,0.0,0.0,25.2,0.03,-0.01,180.0,0.0,0.0,0.0,0.0,0,99.99,0.0
12141730,1766326444099494,0,0,-0.000285,0.000199,1.003049,0.022385,-0.021164,-0.00766,0.0,0.0,0.0,25.21,0.01,0.03,180.0,0.0,0.0,0.0,0.0,0,99.99,0.0
12167738,1766326444125502,0,0,-0.000102,7.7e-05,1.00427,0.022385,-0.028793,0.007599,0.0,0.0,0.0,25.21,0.01,-0.01,180.0,0.0,0.0,0.0,0.0,0,99.99,0.0
12194732,1766326444152496,0,0,-0.000407,0.000931,1.003721,0.007126,-0.028793,-0.022919,0.0,0.0,0.0,25.21,0.05,0.02,180.0,0.0,0.0,0.0,0.0,0,99.99,0.0
12220730,1766326444178494,0,0,-0.000713,0.000626,1.003538,-0.008133,-0.021164,-0.022919,0.0,0.0,0.0,25.21,0.02,0.05,180.0,0.0,0.0,0.0,0.0,0,99.99,0.0
12247730,1766326444205494,0,0,-0.001384,0.000748,1.002561,-0.015762,-0.013535,-3.1e-05,0.0,0.0,0.0,25.19,0.05,0.08,180.0,0.0,0.0,0.0,0.0,0,99.99,0.0
12273730,1766326444231494,0,0,-0.001262,0.000748,1.002866,-0.023392,0.039871,-3.1e-05,0.0,0.0,0.0,25.19,0.05,0.07,180.0,0.0,0.0,0.0,0.0,0,99.99,0.0
12300731,1766326444258495,0,0,-0.001445,0.000321,1.003782,0.007126,0.024612,0.030487,0.0,0.0,0.0,25.2,0.02,0.07,180.0,0.0,0.0,0.0,0.0,0,99.99,0.0
12328731,1766326444286495,0,0,-0.000835,0.000321,1.002378,-0.000503,0.016983,0.061005,0.0,0.0,0.0,25.21,0.01,0.03,180.0,0.0,0.0,0.0,0.0,0,99.99,0.0
12354730,1766326444312494,0,0,-0.001323,0.000992,1.002927,-0.000503,0.001724,0.007599,0.0,0.0,0.0,25.21,0.04,0.08,180.0,0.0,0.0,0.0,0.0,0,99.99,0.0
12387731,1766326444345495,0,0,-0.001445,0.00087,1.002805,-0.000503,-0.013535,0.015228,0.0,0.0,0.0,25.21,0.05,0.08,180.0,0.0,0.0,0.0,0.0,0,99.99,0.0
12413731,1766326444371495,0,0,-0.000346,0.000199,1.003843,-0.023392,-0.005905,0.015228,0.0,0.0,0.0,25.21,0.03,0.03,180.0,0.0,0.0,0.0,0.0,0,99.99,0.0
12438731,1766326444396495,0,0,-0.000224,-4.6e-05,1.003538,0.007126,-0.028793,0.038116,0.0,0.0,0.0,25.21,-0.02,-0.0,180.0,0.0,0.0,0.0,0.0,0,99.99,0.0
12463730,1766326444421494,0,0,-0.000224,1.6e-05,1.002927,-0.000503,-0.036423,-3.1e-05,0.0,0.0,0.0,25.2,-0.02,0.02,180.0,0.0,0.0,0.0,0.0,0,99.99,0.0
12490730,1766326444448494,0,0,-0.000346,0.000565,1.003355,0.007126,-0.036423,-0.022919,0.0,0.0,0.0,25.2,0.05,0.02,180.0,0.0,0.0,0.0,0.0,0,99.99,0.0
12515730,1766326444473494,0,0,-0.000285,0.000992,1.002683,-0.000503,-0.036423,-0.015289,0.0,0.0,0.0,25.2,0.05,0.02,180.0,0.0,0.0,0.0,0.0,0,99.99,0.0
12564731,1766326444522495,0,0,-0.00059,0.000626,1.003782,-0.000503,-0.028793,-0.015289,0.0,0.0,0.0,25.2,0.05,0.04,180.0,0.0,0.0,0.0,0.0,0,99.99,0.0
12591730,1766326444549494,0,0,-0.000224,0.000443,1.003232,0.007126,-0.028793,-0.015289,0.0,0.0,0.0,25.2,0.03,0.01,180.0,0.0,0.0,0.0,0.0,0,99.99,0.0
12616730,1766326444574494,0,0,-0.00059,0.00087,1.003294,-0.008133,-0.028793,-0.022919,0.0,0.0,0.0,25.2,0.04,0.03,180.0,0.0,0.0,0.0,0.0,0,99.99,0.0
12643731,1766326444601495,0,0,-0.000651,0.000565,1.003538,-0.031021,-0.021164,-0.00766,0.0,0.0,0.0,25.19,0.02,0.03,180.0,0.0,0.0,0.0,0.0,0,99.99,0.0
12669731,1766326444627495,0,0,-0.001018,0.000321,1.00366,-0.000503,-0.036423,-0.00766,0.0,0.0,0.0,25.2,0.02,0.05,180.0,0.0,0.0,0.0,0.0,0,99.99,0.0
12696731,1766326444654495,0,0,-0.000774,0.000138,1.003538,-0.015762,-0.036423,-0.015289,0.0,0.0,0.0,25.21,0.01,0.06,180.0,0.0,0.0,0.0,0.0,0,99.99,0.0
12721731,1766326444679495,0,0,-0.00059,-0.000229,1.002927,-0.015762,-0.028793,-3.1e-05,0.0,0.0,0.0,25.2,-0.0,0.03,180.0,0.0,0.0,0.0,0.0,0,99.99,0.0
12747730,1766326444705494,0,0,-4.1e-05,0.000199,1.005002,-0.053909,-0.06694,0.030487,0.0,0.0,0.0,25.2,0.02,-0.01,180.0,0.0,0.0,0.0,0.0,0,99.99,0.0
12773730,1766326444731494,0,0,-0.001201,0.000626,1.004697,-0.099686,-0.089828,-3.1e-05,0.0,0.0,0.0,25.2,0.03,0.07,180.0,0.0,0.0,0.0,0.0,0,99.99,0.0
12799730,1766326444757494,0,0,-0.000468,0.001053,1.003538,-0.107315,-0.051682,0.022858,0.0,0.0,0.0,25.21,0.04,0.03,180.0,0.0,0.0,0.0,0.0,0,99.99,0.0
12824731,1766326444782495,0,0,-0.000468,0.000626,1.000059,-0.084427,-0.036423,0.038116,0.0,0.0,0.0,25.21,0.04,0.02,180.0,0.0,0.0,0.0,0.0,0,99.99,0.0
12851730,1766326444809494,0,0,-0.000468,0.000809,1.004575,-0.000503,-0.005905,0.015228,0.0,0.0,0.0,25.2,0.05,0.03,180.0,0.0,0.0,0.0,0.0,0,99.99,0.0
12877730,1766326444835494,0,0,-0.000407,0.000382,1.0025,-0.008133,-0.036423,0.038116,0.0,0.0,0.0,25.2,0.04,0.02,180.0,0.0,0.0,0.0,0.0,0,99.99,0.0
12904730,1766326444862494,0,0,-0.000468,0.000321,1.002683,-0.015762,-0.06694,0.053375,0.0,0.0,0.0,25.21,0.02,0.03,180.0,0.0,0.0,0.0,0.0,0,99.99,0.0
12932730,1766326444890494,0,0,-4.1e-05,0.000443,1.00366,-0.015762,-0.036423,0.076263,0.0,0.0,0.0,25.2,0.03,-0.01,180.0,0.0,0.0,0.0,0.0,0,99.99,0.0
12972739,1766326444930503,0,0,2e-05,0.000321,1.003538,-0.000503,-0.036423,0.022858,0.0,0.0,0.0,25.2,0.03,0.0,180.0,0.0,0.0,0.0,0.0,0,99.99,0.0
12999731,1766326444957495,0,0,0.000203,-0.000107,1.001829,-0.000503,-0.07457,0.022858,0.0,0.0,0.0,25.19,-0.01,-0.0,180.0,0.0,0.0,0.0,0.0,0,99.99,0.0
13025732,1766326444983496,0,0,0.000264,0.000382,1.00366,-0.008133,-0.044052,0.015228,0.0,0.0,0.0,25.19,0.03,-0.01,180.0,0.0,0.0,0.0,0.0,0,99.99,0.0
13053732,1766326445011496,0,0,-0.000102,0.000382,1.003477,-0.000503,-0.021164,0.007599,0.0,0.0,0.0,25.19,0.02,0.02,180.0,0.0,0.0,0.0,0.0,0,99.99,0.0
13079732,1766326445037496,0,0,-0.000102,0.000443,1.002561,-0.03865,0.039871,0.007599,0.0,0.0,0.0,25.2,0.02,-0.0,180.0,0.0,0.0,0.0,0.0,0,99.99,0.0
13106732,1766326445064496,0,0,-0.000651,0.000565,1.003965,-0.008133,0.009354,-0.00766,0.0,0.0,0.0,25.19,0.04,0.06,180.0,0.0,0.0,0.0,0.0,0,99.99,0.0
13132730,1766326445090494,0,0,-0.000346,0.001358,1.002012,-0.031021,0.039871,0.015228,0.0,0.0,0.0,25.19,0.08,0.03,180.0,0.0,0.0,0.0,0.0,0,99.99,0.0
13159731,1766326445117495,0,0,-0.000163,0.00087,1.003782,-0.023392,-0.021164,0.038116,0.0,0.0,0.0,25.2,0.04,0.01,180.0,0.0,0.0,0.0,0.0,0,99.99,0.0
13180731,1766326445138495,0,0,-0.00059,0.000565,1.00311,-0.015762,-0.005905,0.038116,0.0,0.0,0.0,25.19,0.03,0.03,180.0,0.0,0.0,0.0,0.0,0,99.99,0.0
13206734,1766326445164498,0,0,-0.000285,0.000138,1.002683,-0.023392,-0.028793,0.007599,0.0,0.0,0.0,25.2,0.02,0.03,180.0,0.0,0.0,0.0,0.0,0,99.99,0.0
13233732,1766326445191496,0,0,0.000264,-0.000168,1.003538,0.007126,-0.013535,-0.00766,0.0,0.0,0.0,25.19,-0.0,-0.01,180.0,0.0,0.0,0.0,0.0,0,99.99,0.0
13259733,1766326445217497,0,0,-0.000468,-0.000168,1.003171,-0.008133,-0.021164,-0.00766,0.0,0.0,0.0,25.19,-0.01,0.02,180.0,0.0,0.0,0.0,0.0,0,99.99,0.0
13286733,1766326445244497,0,0,-0.000224,0.000504,1.004758,-0.015762,-0.028793,-0.053436,0.0,0.0,0.0,25.19,0.04,-0.01,180.0,0.0,0.0,0.0,0.0,0,99.99,0.0
13312731,1766326445270495,0,0,8.1e-05,0.000931,1.003843,0.022385,-0.021164,-0.015289,0.0,0.0,0.0,25.2,0.03,-0.01,180.0,0.0,0.0,0.0,0.0,0,99.99,0.0
13340731,1766326445298495,0,0,-0.000346,0.000321,1.002805,-0.008133,-0.036423,-0.030548,0.0,0.0,0.0,25.19,0.01,0.03,180.0,0.0,0.0,0.0,0.0,0,99.99,0.0
13578730,1766326445536494,0,0,-0.000957,0.000565,1.003232,0.007126,-0.06694,0.022858,0.0,0.0,0.0,25.2,0.03,0.05,180.0,0.0,0.0,0.0,0.0,0,99.99,0.0
13973730,1766326445931494,0,0,-0.000102,0.000687,1.004331,-0.008133,-0.059311,-0.00766,0.0,0.0,0.0,25.21,0.03,0.02,180.0,0.0,0.0,0.0,0.0,0,99.99,0.0
14658731,1766326446616495,0,0,-0.000163,0.000809,1.002622,0.007126,-0.028793,0.022858,0.0,0.0,0.0,25.21,0.05,0.01,180.0,0.0,0.0,0.0,0.0,0,99.99,0.0
14695730,1766326446653494,0,0,-0.000774,0.000626,1.0025,0.007126,-0.021164,0.007599,0.0,0.0,0.0,25.21,0.03,0.04,180.0,0.0,0.0,0.0,0.0,0,99.99,0.0
14726730,1766326446684494,0,0,-0.000651,0.000626,1.002439,-0.008133,-0.044052,-0.015289,0.0,0.0,0.0,25.21,0.04,0.04,180.0,0.0,0.0,0.0,0.0,0,99.99,0.0
14763730,1766326446721494,0,0,-0.000651,0.000199,1.002988,-0.000503,-0.051682,-0.045807,0.0,0.0,0.0,25.21,0.01,0.02,180.0,0.0,0.0,0.0,0.0,0,99.99,0.0
14796731,1766326446754495,0,0,-0.000346,-0.000107,1.002866,-0.015762,-0.028793,-0.038177,0.0,0.0,0.0,25.22,-0.02,0.03,180.0,0.0,0.0,0.0,0.0,0,99.99,0.0
14830730,1766326446788494,0,0,-0.000407,-0.000168,1.002744,-0.008133,-0.044052,0.022858,0.0,0.0,0.0,25.22,-0.02,0.04,180.0,0.0,0.0,0.0,0.0,0,99.99,0.0
14861734,1766326446819498,0,0,-0.000651,0.00026,1.003355,-0.000503,-0.036423,0.030487,0.0,0.0,0.0,25.21,0.03,0.03,180.0,0.0,0.0,0.0,0.0,0,99.99,0.0
14890730,1766326446848494,0,0,-0.000651,0.000382,1.002012,-0.008133,-0.051682,0.030487,0.0,0.0,0.0,25.22,0.02,0.02,180.0,0.0,0.0,0.0,0.0,0,99.99,0.0
14920734,1766326446878498,0,0,2e-05,0.000748,1.002561,-0.031021,-0.013535,-3.1e-05,0.0,0.0,0.0,25.22,0.04,-0.0,180.0,0.0,0.0,0.0,0.0,0,99.99,0.0
14949730,1766326446907494,0,0,0.000142,-0.000473,1.003904,-0.03865,0.001724,-0.022919,0.0,0.0,0.0,25.21,-0.03,-0.01,180.0,0.0,0.0,0.0,0.0,0,99.99,0.0
14978730,1766326446936494,0,0,-4.1e-05,-0.000229,1.002866,-0.000503,-0.021164,-0.038177,0.0,0.0,0.0,25.21,-0.02,0.01,180.0,0.0,0.0,0.0,0.0,0,99.99,0.0
15009730,1766326446967494,0,0,0.000325,7.7e-05,1.000791,-0.023392,-0.028793,-0.015289,0.0,0.0,0.0,25.21,0.01,-0.01,180.0,0.0,0.0,0.0,0.0,0,99.99,0.0
15052730,1766326447010494,0,0,-4.1e-05,0.000931,1.004087,-0.000503,-0.028793,-0.022919,0.0,0.0,0.0,25.22,0.05,0.01,180.0,0.0,0.0,0.0,0.0,0,99.99,0.0
15082731,1766326447040495,0,0,2e-05,0.000321,1.003599,-0.015762,-0.036423,-0.038177,0.0,0.0,0.0,25.22,0.02,0.01,180.0,0.0,0.0,0.0,0.0,0,99.99,0.0
15113731,1766326447071495,0,0,0.000142,0.000382,1.00311,0.014755,-0.021164,-0.00766,0.0,0.0,0.0,25.22,0.03,-0.01,180.0,0.0,0.0,0.0,0.0,0,99.99,0.0
15143730,1766326447101494,0,0,-0.000102,0.000443,1.00311,-0.008133,-0.028793,-0.00766,0.0,0.0,0.0,25.22,0.03,0.01,180.0,0.0,0.0,0.0,0.0,0,99.99,0.0
15174980,1766326447132744,0,0,-0.000346,0.000443,1.003721,0.007126,-0.021164,-0.00766,0.0,0.0,0.0,25.23,0.02,0.03,180.0,0.0,0.0,0.0,0.0,0,99.99,0.0
15204980,1766326447162744,0,0,-4.1e-05,0.000809,1.003232,-0.000503,0.009354,-0.015289,0.0,0.0,0.0,25.23,0.06,0.01,180.0,0.0,0.0,0.0,0.0,0,99.99,0.0
15236980,1766326447194744,0,0,-0.000163,0.000992,1.002988,0.037643,0.016983,0.030487,0.0,0.0,0.0,25.22,0.07,-0.0,180.0,0.0,0.0,0.0,0.0,0,99.99,0.0
15266730,1766326447224494,0,0,-0.000346,0.000199,1.003538,0.014755,-0.021164,0.022858,0.0,0.0,0.0,25.21,0.01,0.02,180.0,0.0,0.0,0.0,0.0,0,99.99,0.0
15297980,1766326447255744,0,0,-0.000346,0.000382,1.004514,0.014755,-0.044052,-0.022919,0.0,0.0,0.0,25.23,0.01,0.04,180.0,0.0,0.0,0.0,0.0,0,99.99,0.0
15326734,1766326447284498,0,0,2e-05,7.7e-05,1.003721,0.022385,-0.021164,-3.1e-05,0.0,0.0,0.0,25.21,-0.0,0.01,180.0,0.0,0.0,0.0,0.0,0,99.99,0.0
15346731,1766326447304495,0,0,-0.000102,0.000626,1.003049,-0.000503,-0.013535,0.022858,0.0,0.0,0.0,25.21,0.03,0.0,180.0,0.0,0.0,0.0,0.0,0,99.99,0.0
15376738,1766326447334502,0,0,-0.000713,0.000565,1.003416,-0.000503,-0.028793,-3.1e-05,0.0,0.0,0.0,25.21,0.03,0.04,180.0,0.0,0.0,0.0,0.0,0,99.99,0.0
15407730,1766326447365494,0,0,-0.000957,0.00026,1.003538,-0.023392,-0.036423,0.061005,0.0,0.0,0.0,25.21,0.01,0.07,180.0,0.0,0.0,0.0,0.0,0,99.99,0.0
15436731,1766326447394495,0,0,-0.001384,7.7e-05,1.004514,-0.008133,-0.021164,0.053375,0.0,0.0,0.0,25.23,-0.0,0.07,180.0,0.0,0.0,0.0,0.0,0,99.99,0.0
15473730,1766326447431494,0,0,-0.000651,-4.6e-05,1.004331,0.030014,-0.028793,0.022858,0.0,0.0,0.0,25.23,-0.02,0.04,180.0,0.0,0.0,0.0,0.0,0,99.99,0.0
15497731,1766326447455495,0,0,-0.000346,0.000199,1.003782,0.030014,-0.021164,0.038116,0.0,0.0,0.0,25.22,0.02,0.04,180.0,0.0,0.0,0.0,0.0,0,99.99,0.0
15542730,1766326447500494,0,0,8.1e-05,-0.000229,1.003965,0.007126,-0.021164,-0.030548,0.0,0.0,0.0,25.22,-0.01,-0.01,180.0,0.0,0.0,0.0,0.0,0,99.99,0.0
15571730,1766326447529494,0,0,-0.000285,0.000199,1.003232,0.014755,-0.005905,0.015228,0.0,0.0,0.0,25.22,0.01,0.02,180.0,0.0,0.0,0.0,0.0,0,99.99,0.0
15601731,1766326447559495,0,0,-0.001018,0.000321,1.003599,-0.000503,-0.021164,-3.1e-05,0.0,0.0,0.0,25.23,0.02,0.06,180.0,0.0,0.0,0.0,0.0,0,99.99,0.0
15630730,1766326447588494,0,0,-0.000224,1.6e-05,1.003171,-0.008133,-0.036423,-0.00766,0.0,0.0,0.0,25.22,0.0,0.01,180.0,0.0,0.0,0.0,0.0,0,99.99,0.0
15659737,1766326447617501,0,0,0.000203,0.000809,1.003843,-0.015762,-0.044052,-0.030548,0.0,0.0,0.0,25.23,0.03,-0.0,180.0,0.0,0.0,0.0,0.0,0,99.99,0.0
15689740,1766326447647504,0,0,0.000203,0.000748,1.003843,-0.000503,-0.028793,-0.00766,0.0,0.0,0.0,25.23,0.04,-0.02,180.0,0.0,0.0,0.0,0.0,0,99.99,0.0
15719730,1766326447677494,0,0,-0.000468,0.000992,1.003965,0.007126,-0.028793,0.007599,0.0,0.0,0.0,25.23,0.06,0.02,180.0,0.0,0.0,0.0,0.0,0,99.99,0.0
15750730,1766326447708494,0,0,-0.00059,0.000504,1.003294,-0.015762,-0.021164,-0.030548,0.0,0.0,0.0,25.23,0.02,0.04,180.0,0.0,0.0,0.0,0.0,0,99.99,0.0
15779730,1766326447737494,0,0,-0.000651,0.000443,1.002988,0.014755,-0.013535,-0.045807,0.0,0.0,0.0,25.23,0.01,0.03,180.0,0.0,0.0,0.0,0.0,0,99.99,0.0
15809733,1766326447767497,0,0,-0.000285,0.000504,1.002622,-0.015762,-0.051682,-0.015289,0.0,0.0,0.0,25.21,0.02,-0.0,180.0,0.0,0.0,0.0,0.0,0,99.99,0.0
15841730,1766326447799494,0,0,-0.00059,0.000687,1.002927,-0.008133,-0.07457,-0.015289,0.0,0.0,0.0,25.22,0.04,0.04,180.0,0.0,0.0,0.0,0.0,0,99.99,0.0
15869732,1766326447827496,0,0,2e-05,0.000504,1.002683,0.014755,-0.028793,-0.030548,0.0,0.0,0.0,25.23,0.03,-0.01,180.0,0.0,0.0,0.0,0.0,0,99.99,0.0
15899731,1766326447857495,0,0,8.1e-05,0.00026,1.003477,0.007126,-0.021164,-0.022919,0.0,0.0,0.0,25.22,0.02,-0.0,180.0,0.0,0.0,0.0,0.0,0,99.99,0.0
15929980,1766326447887744,0,0,0.000142,-0.000656,1.003599,0.014755,-0.021164,-0.00766,0.0,0.0,0.0,25.22,-0.05,-0.01,180.0,0.0,0.0,0.0,0.0,0,99.99,0.0
15971730,1766326447929494,0,0,-0.000163,-0.000351,1.002988,0.007126,-0.013535,0.030487,0.0,0.0,0.0,25.22,-0.02,0.01,180.0,0.0,0.0,0.0,0.0,0,99.99,0.0
16002730,1766326447960494,0,0,-0.000407,-0.000107,1.002683,0.007126,-0.028793,-0.015289,0.0,0.0,0.0,25.21,-0.01,0.01,180.0,0.0,0.0,0.0,0.0,0,99.99,0.0
16032730,1766326447990494,0,0,-0.000407,0.000321,1.004697,0.007126,-0.013535,0.007599,0.0,0.0,0.0,25.22,0.03,0.02,180.0,0.0,0.0,0.0,0.0,0,99.99,0.0
16064737,1766326448022501,0,0,-0.001323,0.000504,1.003416,-0.008133,-0.028793,0.030487,0.0,0.0,0.0,25.22,0.04,0.09,180.0,0.0,0.0,0.0,0.0,0,99.99,0.0
16091738,1766326448049502,0,0,-0.001567,0.00087,1.003782,-0.008133,-0.013535,-3.1e-05,0.0,0.0,0.0,25.23,0.04,0.08,180.0,0.0,0.0,0.0,0.0,0,99.99,0.0
16119730,1766326448077494,0,0,-0.000407,0.000687,1.003171,0.007126,-0.028793,-0.022919,0.0,0.0,0.0,25.22,0.05,0.02,180.0,0.0,0.0,0.0,0.0,0,99.99,0.0
16152730,1766326448110494,0,0,-0.000651,0.000748,1.00311,-0.008133,-0.028793,-3.1e-05,0.0,0.0,0.0,25.23,0.04,0.04,180.0,0.0,0.0,0.0,0.0,0,99.99,0.0
16182731,1766326448140495,0,0,-0.000529,7.7e-05,1.004026,-0.015762,-0.051682,0.022858,0.0,0.0,0.0,25.24,0.01,0.04,180.0,0.0,0.0,0.0,0.0,0,99.99,0.0
16212734,1766326448170498,0,0,-0.00059,0.000321,1.003599,0.007126,-0.021164,-0.00766,0.0,0.0,0.0,25.23,0.03,0.04,180.0,0.0,0.0,0.0,0.0,0,99.99,0.0
16241731,1766326448199495,0,0,-4.1e-05,1.6e-05,1.002012,-0.008133,-0.051682,0.022858,0.0,0.0,0.0,25.23,-0.0,0.0,180.0,0.0,0.0,0.0,0.0,0,99.99,0.0
16272731,1766326448230495,0,0,-0.000285,0.000382,1.004026,-0.023392,-0.044052,-0.030548,0.0,0.0,0.0,25.23,0.02,0.01,180.0,0.0,0.0,0.0,0.0,0,99.99,0.0
16303980,1766326448261744,0,0,-0.000713,0.000138,1.004087,-0.023392,-0.051682,-0.00766,0.0,0.0,0.0,25.22,0.01,0.04,180.0,0.0,0.0,0.0,0.0,0,99.99,0.0
16334731,1766326448292495,0,0,-0.00059,0.000992,1.002866,-0.031021,-0.021164,0.022858,0.0,0.0,0.0,25.23,0.04,0.03,180.0,0.0,0.0,0.0,0.0,0,99.99,0.0
16363730,1766326448321494,0,0,-0.00059,0.001236,1.003477,-0.008133,-0.036423,0.022858,0.0,0.0,0.0,25.23,0.07,0.05,180.0,0.0,0.0,0.0,0.0,0,99.99,0.0
16404730,1766326448362494,0,0,2e-05,0.000809,1.003232,-0.008133,-0.028793,0.038116,0.0,0.0,0.0,25.23,0.05,-0.01,180.0,0.0,0.0,0.0,0.0,0,99.99,0.0
16434731,1766326448392495,0,0,8.1e-05,0.000321,1.003843,-0.031021,-0.021164,0.038116,0.0,0.0,0.0,25.23,0.04,-0.01,180.0,0.0,0.0,0.0,0.0,0,99.99,0.0
16463731,1766326448421495,0,0,0.000203,-0.000229,1.004026,-0.04628,-0.044052,0.045746,0.0,0.0,0.0,25.23,-0.01,-0.01,180.0,0.0,0.0,0.0,0.0,0,99.99,0.0
16493731,1766326448451495,0,0,0.000874,-0.000351,1.003477,-0.015762,-0.013535,0.015228,0.0,0.0,0.0,25.23,-0.02,-0.05,180.0,0.0,0.0,0.0,0.0,0,99.99,0.0
16524730,1766326448482494,0,0,2e-05,-0.000656,1.004148,0.022385,-0.028793,0.022858,0.0,0.0,0.0,25.22,-0.04,0.0,180.0,0.0,0.0,0.0,0.0,0,99.99,0.0
16555731,1766326448513495,0,0,0.000142,0.000443,1.00427,0.007126,-0.013535,0.007599,0.0,0.0,0.0,25.23,0.03,-0.02,180.0,0.0,0.0,0.0,0.0,0,99.99,0.0
16584730,1766326448542494,0,0,-4.1e-05,0.000504,1.004209,0.030014,0.009354,0.061005,0.0,0.0,0.0,25.23,0.03,-0.01,180.0,0.0,0.0,0.0,0.0,0,99.99,0.0
16616731,1766326448574495,0,0,0.000142,0.000565,1.003599,-0.000503,-0.059311,-3.1e-05,0.0,0.0,0.0,25.23,0.04,-0.01,180.0,0.0,0.0,0.0,0.0,0,99.99,0.0
16643731,1766326448601495,0,0,-0.000224,0.000199,1.002988,0.014755,-0.059311,0.007599,0.0,0.0,0.0,25.23,-0.01,0.01,180.0,0.0,0.0,0.0,0.0,0,99.99,0.0
16674731,1766326448632495,0,0,-0.000529,1.6e-05,1.003843,0.022385,-0.044052,-3.1e-05,0.0,0.0,0.0,25.22,0.02,0.05,180.0,0.0,0.0,0.0,0.0,0,99.99,0.0
16704730,1766326448662494,0,0,-0.000713,0.000138,1.00366,0.022385,-0.021164,-0.038177,0.0,0.0,0.0,25.22,-0.01,0.05,180.0,0.0,0.0,0.0,0.0,0,99.99,0.0
16734730,1766326448692494,0,0,-0.001018,0.000443,1.002866,0.037643,-0.013535,-0.00766,0.0,0.0,0.0,25.23,0.03,0.05,180.0,0.0,0.0,0.0,0.0,0,99.99,0.0
16763732,1766326448721496,0,0,2e-05,1.6e-05,1.003049,0.022385,-0.021164,0.045746,0.0,0.0,0.0,25.23,-0.02,-0.01,180.0,0.0,0.0,0.0,0.0,0,99.99,0.0
16793732,1766326448751496,0,0,0.000508,0.000626,1.003965,0.014755,-0.013535,0.030487,0.0,0.0,0.0,25.23,0.04,-0.02,180.0,0.0,0.0,0.0,0.0,0,99.99,0.0
16816733,1766326448774497,0,0,0.000142,0.000382,1.004209,-0.015762,-0.028793,0.015228,0.0,0.0,0.0,25.23,0.02,-0.02,180.0,0.0,0.0,0.0,0.0,0,99.99,0.0
16850730,1766326448808494,0,0,-0.000468,-0.000107,1.004026,-0.031021,-0.059311,0.030487,0.0,0.0,0.0,25.23,-0.01,0.02,180.0,0.0,0.0,0.0,0.0,0,99.99,0.0
16891730,1766326448849494,0,0,-0.000407,7.7e-05,1.003904,-0.008133,-0.021164,0.068634,0.0,0.0,0.0,25.22,0.01,0.02,180.0,0.0,0.0,0.0,0.0,0,99.99,0.0
16921730,1766326448879494,0,0,-0.000407,0.000321,1.005186,-0.000503,-0.021164,0.015228,0.0,0.0,0.0,25.23,0.01,0.02,180.0,0.0,0.0,0.0,0.0,0,99.99,0.0
16950733,1766326448908497,0,0,0.000447,0.000138,1.004148,-0.023392,-0.005905,-0.015289,0.0,0.0,0.0,25.23,0.02,-0.04,180.0,0.0,0.0,0.0,0.0,0,99.99,0.0
16979730,1766326448937494,0,0,-0.000102,0.001236,1.003294,-0.023392,-0.013535,-0.045807,0.0,0.0,0.0,25.24,0.07,-0.01,180.0,0.0,0.0,0.0,0.0,0,99.99,0.0
17010730,1766326448968494,0,0,0.000203,0.001053,1.003416,-0.023392,-0.036423,-0.022919,0.0,0.0,0.0,25.23,0.06,-0.02,180.0,0.0,0.0,0.0,0.0,0,99.99,0.0
17039738,1766326448997502,0,0,-0.000529,0.000809,1.004392,-0.023392,-0.021164,-0.022919,0.0,0.0,0.0,25.24,0.04,0.03,180.0,0.0,0.0,0.0,0.0,0,99.99,0.0
17069731,1766326449027495,0,0,-0.000346,0.001358,1.003904,-0.015762,-0.021164,-0.068695,0.0,0.0,0.0,25.24,0.08,0.02,180.0,0.0,0.0,0.0,0.0,0,99.99,0.0
17100731,1766326449058495,0,0,-0.000713,0.000931,1.002866,0.022385,-0.005905,-0.00766,0.0,0.0,0.0,25.23,0.05,0.05,180.0,0.0,0.0,0.0,0.0,0,99.99,0.0
17131731,1766326449089495,0,0,-0.000529,0.000565,1.003232,-0.000503,-0.028793,-3.1e-05,0.0,0.0,0.0,25.23,0.03,0.03,180.0,0.0,0.0,0.0,0.0,0,99.99,0.0
17160730,1766326449118494,0,0,-0.000713,0.000443,1.003477,0.014755,-0.028793,0.015228,0.0,0.0,0.0,25.23,0.02,0.03,180.0,0.0,0.0,0.0,0.0,0,99.99,0.0
17189732,1766326449147496,0,0,-0.000713,0.000565,1.003538,0.045273,-0.036423,0.007599,0.0,0.0,0.0,25.23,0.04,0.03,180.0,0.0,0.0,0.0,0.0,0,99.99,0.0
17219734,1766326449177498,0,0,-0.000529,0.000626,1.002744,0.022385,-0.059311,-0.015289,0.0,0.0,0.0,25.24,0.02,0.04,180.0,0.0,0.0,0.0,0.0,0,99.99,0.0
17249731,1766326449207495,0,0,-0.000346,0.000809,1.002622,0.030014,-0.036423,0.015228,0.0,0.0,0.0,25.23,0.03,0.01,180.0,0.0,0.0,0.0,0.0,0,99.99,0.0
17279731,1766326449237495,0,0,-0.000102,0.000809,1.002683,0.022385,-0.021164,0.022858,0.0,0.0,0.0,25.24,0.06,0.01,180.0,0.0,0.0,0.0,0.0,0,99.99,0.0
17321730,1766326449279494,0,0,-0.000529,0.000382,1.003416,0.014755,-0.005905,-0.045807,0.0,0.0,0.0,25.23,0.01,0.02,180.0,0.0,0.0,0.0,0.0,0,99.99,0.0
17352731,1766326449310495,0,0,2e-05,0.000321,1.003049,-0.008133,0.001724,-0.015289,0.0,0.0,0.0,25.23,0.01,-0.0,180.0,0.0,0.0,0.0,0.0,0,99.99,0.0
17382731,1766326449340495,0,0,-0.00059,7.7e-05,1.002622,-0.015762,-0.036423,-3.1e-05,0.0,0.0,0.0,25.23,-0.0,0.04,180.0,0.0,0.0,0.0,0.0,0,99.99,0.0
17414730,1766326449372494,0,0,0.000264,0.000626,1.003171,-0.008133,-0.028793,-0.022919,0.0,0.0,0.0,25.23,0.05,-0.01,180.0,0.0,0.0,0.0,0.0,0,99.99,0.0
17441980,1766326449399744,0,0,0.000264,0.000382,1.003171,-0.084427,-0.005905,-0.022919,0.0,0.0,0.0,25.23,0.0,-0.01,180.0,0.0,0.0,0.0,0.0,0,99.99,0.0
17470731,1766326449428495,0,0,-0.000468,0.000382,1.003294,-0.023392,-0.028793,0.022858,0.0,0.0,0.0,25.23,0.02,0.03,180.0,0.0,0.0,0.0,0.0,0,99.99,0.0
17507738,1766326449465502,0,0,-4.1e-05,0.001114,1.00366,-0.04628,-0.028793,-0.00766,0.0,0.0,0.0,25.24,0.05,-0.0,180.0,0.0,0.0,0.0,0.0,0,99.99,0.0
17536731,1766326449494495,0,0,0.000447,0.000443,1.002561,-0.015762,-0.036423,0.022858,0.0,0.0,0.0,25.24,0.04,-0.03,180.0,0.0,0.0,0.0,0.0,0,99.99,0.0
17566730,1766326449524494,0,0,-0.000407,0.000809,1.00366,-0.023392,-0.028793,0.022858,0.0,0.0,0.0,25.24,0.04,0.01,180.0,0.0,0.0,0.0,0.0,0,99.99,0.0
17595731,1766326449553495,0,0,-4.1e-05,0.000504,1.003416,-0.000503,-0.036423,-0.015289,0.0,0.0,0.0,25.23,0.04,0.02,180.0,0.0,0.0,0.0,0.0,0,99.99,0.0
17626731,1766326449584495,0,0,0.000508,0.000931,1.003416,0.007126,-0.021164,0.007599,0.0,0.0,0.0,25.24,0.05,-0.03,180.0,0.0,0.0,0.0,0.0,0,99.99,0.0
17657734,1766326449615498,0,0,0.000325,-4.6e-05,1.002866,-0.000503,-0.044052,-0.015289,0.0,0.0,0.0,25.23,0.0,-0.01,180.0,0.0,0.0,0.0,0.0,0,99.99,0.0
17687730,1766326449645494,0,0,2e-05,-0.000168,1.003782,-0.008133,-0.036423,-0.022919,0.0,0.0,0.0,25.23,-0.01,-0.0,180.0,0.0,0.0,0.0,0.0,0,99.99,0.0
17715731,1766326449673495,0,0,0.000386,0.000748,1.004331,-0.015762,-0.028793,0.007599,0.0,0.0,0.0,25.23,0.04,-0.02,180.0,0.0,0.0,0.0,0.0,0,99.99,0.0
17756734,1766326449714498,0,0,8.1e-05,0.000382,1.004087,-0.015762,-0.044052,0.015228,0.0,0.0,0.0,25.23,0.02,0.01,180.0,0.0,0.0,0.0,0.0,0,99.99,0.0
17786731,1766326449744495,0,0,8.1e-05,0.000809,1.003904,-0.000503,-0.059311,0.007599,0.0,0.0,0.0,25.23,0.05,0.0,180.0,0.0,0.0,0.0,0.0,0,99.99,0.0
17816738,1766326449774502,0,0,0.000264,0.000443,1.003416,0.007126,-0.036423,0.030487,0.0,0.0,0.0,25.23,0.01,-0.0,180.0,0.0,0.0,0.0,0.0,0,99.99,0.0
17845731,1766326449803495,0,0,-0.000163,0.000443,1.002927,-0.000503,-0.036423,-3.1e-05,0.0,0.0,0.0,25.22,0.01,0.01,180.0,0.0,0.0,0.0,0.0,0,99.99,0.0
17901734,1766326449859498,0,0,0.000264,-0.000107,1.002073,-0.03865,-0.028793,-0.022919,0.0,0.0,0.0,25.24,-0.0,-0.03,180.0,0.0,0.0,0.0,0.0,0,99.99,0.0
17930731,1766326449888495,0,0,0.000508,0.000443,1.004087,-0.031021,-0.044052,-3.1e-05,0.0,0.0,0.0,25.24,0.04,-0.01,180.0,0.0,0.0,0.0,0.0,0,99.99,0.0
17958730,1766326449916494,0,0,0.000569,0.000992,1.004392,0.007126,-0.044052,0.015228,0.0,0.0,0.0,25.24,0.06,-0.03,180.0,0.0,0.0,0.0,0.0,0,99.99,0.0
17989731,1766326449947495,0,0,0.000447,0.001114,1.004331,-0.000503,-0.013535,-0.030548,0.0,0.0,0.0,25.24,0.06,-0.03,180.0,0.0,0.0,0.0,0.0,0,99.99,0.0
18015731,1766326449973495,0,0,-0.000346,0.000504,1.003049,-0.000503,-0.013535,0.015228,0.0,0.0,0.0,25.24,0.02,0.02,180.0,0.0,0.0,0.0,0.0,0,99.99,0.0
18045730,1766326450003494,0,0,-0.000163,0.00087,1.004148,-0.008133,-0.059311,-3.1e-05,0.0,0.0,0.0,25.24,0.05,0.0,180.0,0.0,0.0,0.0,0.0,0,99.99,0.0
18074730,1766326450032494,0,0,-0.000224,0.000443,1.004148,-0.023392,-0.036423,0.015228,0.0,0.0,0.0,25.24,0.03,0.0,180.0,0.0,0.0,0.0,0.0,0,99.99,0.0
18103980,1766326450061744,0,0,-4.1e-05,0.00026,1.004392,0.030014,-0.059311,0.007599,0.0,0.0,0.0,25.24,0.02,0.0,180.0,0.0,0.0,0.0,0.0,0,99.99,0.0
18131738,1766326450089502,0,0,0.000142,0.000443,1.003843,0.007126,-0.051682,0.038116,0.0,0.0,0.0,25.23,0.04,-0.0,180.0,0.0,0.0,0.0,0.0,0,99.99,0.0
18161734,1766326450119498,0,0,8.1e-05,-0.000351,1.003843,0.037643,-0.044052,0.030487,0.0,0.0,0.0,25.23,-0.02,0.02,180.0,0.0,0.0,0.0,0.0,0,99.99,0.0
18192731,1766326450150495,0,0,-0.000102,0.000443,1.004087,0.014755,-0.059311,0.015228,0.0,0.0,0.0,25.23,0.04,-0.01,180.0,0.0,0.0,0.0,0.0,0,99.99,0.0
18235733,1766326450193497,0,0,-0.000346,0.00087,1.002927,-0.000503,-0.036423,0.015228,0.0,0.0,0.0,25.24,0.04,0.01,180.0,0.0,0.0,0.0,0.0,0,99.99,0.0
18264731,1766326450222495,0,0,8.1e-05,0.000748,1.002622,-0.008133,-0.021164,0.007599,0.0,0.0,0.0,25.24,0.04,-0.0,180.0,0.0,0.0,0.0,0.0,0,99.99,0.0
18294733,1766326450252497,0,0,0.000142,0.00026,1.003843,-0.023392,-0.013535,-0.015289,0.0,0.0,0.0,25.24,0.0,-0.02,180.0,0.0,0.0,0.0,0.0,0,99.99,0.0
18324731,1766326450282495,0,0,-0.000468,0.000626,1.003538,-0.023392,-0.021164,-0.00766,0.0,0.0,0.0,25.24,0.03,0.02,180.0,0.0,0.0,0.0,0.0,0,99.99,0.0
18352730,1766326450310494,0,0,-0.000468,0.00026,1.003904,-0.03865,-0.059311,0.022858,0.0,0.0,0.0,25.24,0.02,0.03,180.0,0.0,0.0,0.0,0.0,0,99.99,0.0
18381731,1766326450339495,0,0,0.000203,-0.000412,1.002866,-0.053909,-0.051682,0.015228,0.0,0.0,0.0,25.24,-0.02,-0.01,180.0,0.0,0.0,0.0,0.0,0,99.99,0.0
18411730,1766326450369494,0,0,-0.00059,-0.000412,1.003782,-0.015762,-0.013535,0.053375,0.0,0.0,0.0,25.23,-0.02,0.04,180.0,0.0,0.0,0.0,0.0,0,99.99,0.0
18441730,1766326450399494,0,0,-0.00059,0.00026,1.003904,-0.008133,-0.013535,0.007599,0.0,0.0,0.0,25.24,0.0,0.02,180.0,0.0,0.0,0.0,0.0,0,99.99,0.0
18469731,1766326450427495,0,0,0.000264,7.7e-05,1.002927,-0.000503,-0.013535,0.038116,0.0,0.0,0.0,25.24,0.02,-0.02,180.0,0.0,0.0,0.0,0.0,0,99.99,0.0
18497980,1766326450455744,0,0,-0.000102,0.000504,1.002317,-0.023392,-0.021164,0.015228,0.0,0.0,0.0,25.24,0.03,0.01,180.0,0.0,0.0,0.0,0.0,0,99.99,0.0
18529739,1766326450487503,0,0,-0.000285,0.001358,1.002927,-0.008133,-0.036423,-0.022919,0.0,0.0,0.0,25.24,0.1,0.02,180.0,0.0,0.0,0.0,0.0,0,99.99,0.0
18556730,1766326450514494,0,0,-0.000224,0.000443,1.002378,0.014755,-0.07457,-0.030548,0.0,0.0,0.0,25.24,0.02,0.01,180.0,0.0,0.0,0.0,0.0,0,99.99,0.0
18578730,1766326450536494,0,0,0.000203,0.000565,1.002317,-0.015762,-0.028793,-0.00766,0.0,0.0,0.0,25.24,0.03,-0.0,180.0,0.0,0.0,0.0,0.0,0,99.99,0.0
18607731,1766326450565495,0,0,-4.1e-05,0.000321,1.002561,-0.000503,-0.021164,-0.00766,0.0,0.0,0.0,25.24,0.02,-0.01,180.0,0.0,0.0,0.0,0.0,0,99.99,0.0
18638730,1766326450596494,0,0,2e-05,0.000687,1.002683,0.007126,-0.036423,-0.038177,0.0,0.0,0.0,25.23,0.04,-0.0,180.0,0.0,0.0,0.0,0.0,0,99.99,0.0
18676733,1766326450634497,0,0,0.000325,0.000748,1.004087,-0.000503,-0.036423,-0.015289,0.0,0.0,0.0,25.24,0.04,-0.02,180.0,0.0,0.0,0.0,0.0,0,99.99,0.0
18705731,1766326450663495,0,0,8.1e-05,1.6e-05,1.002866,-0.031021,-0.051682,-3.1e-05,0.0,0.0,0.0,25.24,0.02,-0.02,180.0,0.0,0.0,0.0,0.0,0,99.99,0.0
18734732,1766326450692496,0,0,0.000325,-0.000656,1.004209,-0.000503,0.001724,-0.022919,0.0,0.0,0.0,25.24,-0.03,-0.02,180.0,0.0,0.0,0.0,0.0,0,99.99,0.0
18764731,1766326450722495,0,0,-0.000224,-4.6e-05,1.003477,-0.031021,-0.005905,-0.022919,0.0,0.0,0.0,25.23,-0.01,0.01,180.0,0.0,0.0,0.0,0.0,0,99.99,0.0
18792731,1766326450750495,0,0,0.000447,-4.6e-05,1.003477,-0.015762,-0.028793,-0.022919,0.0,0.0,0.0,25.23,0.0,-0.03,180.0,0.0,0.0,0.0,0.0,0,99.99,0.0
18821730,1766326450779494,0,0,0.000508,0.00026,1.004148,-0.000503,-0.036423,-0.015289,0.0,0.0,0.0,25.23,0.03,-0.03,180.0,0.0,0.0,0.0,0.0,0,99.99,0.0
18851730,1766326450809494,0,0,0.000386,0.000565,1.003538,-0.03865,-0.036423,-0.00766,0.0,0.0,0.0,25.24,0.02,-0.01,180.0,0.0,0.0,0.0,0.0,0,99.99,0.0
18885730,1766326450843494,0,0,0.000203,0.000626,1.003355,-0.008133,-0.028793,-0.022919,0.0,0.0,0.0,25.23,0.04,-0.0,180.0,0.0,0.0,0.0,0.0,0,99.99,0.0
18914730,1766326450872494,0,0,0.000386,7.7e-05,1.004514,-0.015762,-0.021164,-0.068695,0.0,0.0,0.0,25.23,0.0,-0.02,180.0,0.0,0.0,0.0,0.0,0,99.99,0.0
18942731,1766326450900495,0,0,-0.000285,-0.00029,1.00366,-0.015762,-0.028793,-0.076324,0.0,0.0,0.0,25.23,-0.02,0.02,180.0,0.0,0.0,0.0,0.0,0,99.99,0.0
18974732,1766326450932496,0,0,0.000325,0.000382,1.003721,-0.015762,-0.021164,-0.00766,0.0,0.0,0.0,25.23,0.02,-0.02,180.0,0.0,0.0,0.0,0.0,0,99.99,0.0
19000731,1766326450958495,0,0,-0.000896,0.000626,1.002805,0.007126,-0.028793,0.007599,0.0,0.0,0.0,25.23,0.05,0.05,180.0,0.0,0.0,0.0,0.0,0,99.99,0.0
19030730,1766326450988494,0,0,-0.000163,0.000687,1.001768,-0.000503,-0.036423,-0.015289,0.0,0.0,0.0,25.23,0.03,0.02,180.0,0.0,0.0,0.0,0.0,0,99.99,0.0
19058731,1766326451016495,0,0,0.000203,0.00026,1.003171,-0.015762,-0.021164,-0.015289,0.0,0.0,0.0,25.23,0.01,-0.02,180.0,0.0,0.0,0.0,0.0,0,99.99,0.0
19099730,1766326451057494,0,0,0.000203,-4.6e-05,1.003782,0.014755,-0.028793,-0.030548,0.0,0.0,0.0,25.23,0.01,-0.02,180.0,0.0,0.0,0.0,0.0,0,99.99,0.0
19128731,1766326451086495,0,0,-0.000285,-0.000107,1.003782,-0.008133,-0.021164,-0.00766,0.0,0.0,0.0,25.24,-0.01,0.03,180.0,0.0,0.0,0.0,0.0,0,99.99,0.0
19158730,1766326451116494,0,0,-0.000102,-0.000168,1.004148,-0.015762,0.001724,0.022858,0.0,0.0,0.0,25.24,-0.01,0.02,180.0,0.0,0.0,0.0,0.0,0,99.99,0.0
19187730,1766326451145494,0,0,8.1e-05,0.000199,1.003843,-0.015762,-0.051682,0.030487,0.0,0.0,0.0,25.24,0.01,-0.01,180.0,0.0,0.0,0.0,0.0,0,99.99,0.0
19216730,1766326451174494,0,0,-0.000224,-4.6e-05,1.002561,-0.015762,-0.036423,-0.015289,0.0,0.0,0.0,25.24,-0.0,0.02,180.0,0.0,0.0,0.0,0.0,0,99.99,0.0
19245730,1766326451203494,0,0,-0.000835,-0.000473,1.002683,0.022385,-0.005905,-0.015289,0.0,0.0,0.0,25.23,-0.02,0.05,180.0,0.0,0.0,0.0,0.0,0,99.99,0.0
19274731,1766326451232495,0,0,-0.000713,-0.000412,1.002317,-0.031021,-0.059311,-0.00766,0.0,0.0,0.0,25.23,-0.03,0.04,180.0,0.0,0.0,0.0,0.0,0,99.99,0.0
19303738,1766326451261502,0,0,-0.000957,-0.000168,1.002561,-0.031021,-0.044052,-0.00766,0.0,0.0,0.0,25.24,-0.0,0.05,180.0,0.0,0.0,0.0,0.0,0,99.99,0.0
19331730,1766326451289494,0,0,-0.000468,-0.000351,1.003599,0.007126,-0.013535,-0.015289,0.0,0.0,0.0,25.24,-0.02,0.04,180.0,0.0,0.0,0.0,0.0,0,99.99,0.0
19361731,1766326451319495,0,0,-0.000102,0.000382,1.003782,-0.008133,-0.028793,0.007599,0.0,0.0,0.0,25.24,0.04,0.01,180.0,0.0,0.0,0.0,0.0,0,99.99,0.0
19390730,1766326451348494,0,0,0.000447,0.000382,1.003416,0.037643,-0.021164,0.038116,0.0,0.0,0.0,25.24,0.0,-0.03,180.0,0.0,0.0,0.0,0.0,0,99.99,0.0
19419730,1766326451377494,0,0,0.000203,0.00026,1.003355,-0.023392,-0.044052,0.053375,0.0,0.0,0.0,25.23,-0.0,-0.02,180.0,0.0,0.0,0.0,0.0,0,99.99,0.0
19447738,1766326451405502,0,0,0.000508,0.000565,1.003477,-0.015762,-0.021164,0.061005,0.0,0.0,0.0,25.23,0.01,-0.03,180.0,0.0,0.0,0.0,0.0,0,99.99,0.0
19477731,1766326451435495,0,0,0.000142,0.000504,1.0025,-0.023392,-0.013535,0.015228,0.0,0.0,0.0,25.24,0.04,-0.01,180.0,0.0,0.0,0.0,0.0,0,99.99,0.0
19508730,1766326451466494,0,0,-0.000468,0.001175,1.001829,-0.015762,-0.028793,0.038116,0.0,0.0,0.0,25.23,0.06,0.03,180.0,0.0,0.0,0.0,0.0,0,99.99,0.0
19547731,1766326451505495,0,0,-0.000102,0.000687,1.004331,-0.015762,-0.044052,0.015228,0.0,0.0,0.0,25.24,0.04,0.02,180.0,0.0,0.0,0.0,0.0,0,99.99,0.0
19581730,1766326451539494,0,0,-0.000163,0.000504,1.00366,0.007126,-0.028793,0.015228,0.0,0.0,0.0,25.24,0.03,0.01,180.0,0.0,0.0,0.0,0.0,0,99.99,0.0
19610980,1766326451568744,0,0,0.000386,0.001114,1.002317,-0.008133,-0.036423,-0.015289,0.0,0.0,0.0,25.24,0.05,-0.04,180.0,0.0,0.0,0.0,0.0,0,99.99,0.0
19640731,1766326451598495,0,0,2e-05,0.000687,1.001951,-0.000503,-0.036423,0.015228,0.0,0.0,0.0,25.23,0.04,0.02,180.0,0.0,0.0,0.0,0.0,0,99.99,0.0
19670730,1766326451628494,0,0,-4.1e-05,0.000626,1.00311,-0.008133,-0.044052,0.007599,0.0,0.0,0.0,25.23,0.03,0.01,180.0,0.0,0.0,0.0,0.0,0,99.99,0.0
19698730,1766326451656494,0,0,-4.1e-05,0.000321,1.003355,-0.000503,-0.028793,-3.1e-05,0.0,0.0,0.0,25.23,0.01,0.01,180.0,0.0,0.0,0.0,0.0,0,99.99,0.0
19726730,1766326451684494,0,0,0.000142,0.000687,1.004209,-0.008133,-0.044052,0.015228,0.0,0.0,0.0,25.23,0.05,-0.01,180.0,0.0,0.0,0.0,0.0,0,99.99,0.0
19756730,1766326451714494,0,0,0.000447,1.6e-05,1.003599,-0.008133,-0.044052,0.022858,0.0,0.0,0.0,25.23,-0.01,-0.04,180.0,0.0,0.0,0.0,0.0,0,99.99,0.0
19785731,1766326451743495,0,0,0.000203,0.000687,1.00366,-0.000503,-0.07457,0.038116,0.0,0.0,0.0,25.24,0.04,-0.01,180.0,0.0,0.0,0.0,0.0,0,99.99,0.0
19814732,1766326451772496,0,0,0.000874,0.00026,1.003538,0.007126,-0.021164,-3.1e-05,0.0,0.0,0.0,25.24,0.01,-0.06,180.0,0.0,0.0,0.0,0.0,0,99.99,0.0
19842730,1766326451800494,0,0,0.000752,0.000321,1.002744,0.014755,-0.036423,0.038116,0.0,0.0,0.0,25.24,0.03,-0.04,180.0,0.0,0.0,0.0,0.0,0,99.99,0.0
19872730,1766326451830494,0,0,0.000447,0.000321,1.002805,0.014755,0.001724,0.022858,0.0,0.0,0.0,25.24,0.02,-0.04,180.0,0.0,0.0,0.0,0.0,0,99.99,0.0
19901730,1766326451859494,0,0,0.000203,0.000138,1.002805,-0.008133,-0.013535,0.015228,0.0,0.0,0.0,25.24,-0.0,-0.01,180.0,0.0,0.0,0.0,0.0,0,99.99,0.0
19929734,1766326451887498,0,0,8.1e-05,-0.000107,1.002744,-0.023392,-0.005905,0.030487,0.0,0.0,0.0,25.24,-0.03,0.0,180.0,0.0,0.0,0.0,0.0,0,99.99,0.0
19971730,1766326451929494,0,0,0.000203,0.00026,1.002744,0.007126,-0.013535,-0.00766,0.0,0.0,0.0,25.24,0.02,-0.01,180.0,0.0,0.0,0.0,0.0,0,99.99,0.0
19999730,1766326451957494,0,0,0.000325,0.000626,1.002927,-0.015762,-0.028793,0.015228,0.0,0.0,0.0,25.24,0.03,-0.01,180.0,0.0,0.0,0.0,0.0,0,99.99,0.0
20029734,1766326451987498,0,0,0.000325,0.000321,1.002073,0.014755,-0.036423,-0.030548,0.0,0.0,0.0,25.24,0.01,-0.02,180.0,0.0,0.0,0.0,0.0,0,99.99,0.0
20051730,1766326452009494,0,0,-0.000102,0.000199,1.003049,-0.000503,-0.013535,-0.00766,0.0,0.0,0.0,25.24,0.01,0.02,180.0,0.0,0.0,0.0,0.0,0,99.99,0.0
20080731,1766326452038495,0,0,0.000325,-0.000107,1.0025,-0.008133,-0.021164,-0.038177,0.0,0.0,0.0,25.23,-0.01,-0.02,180.0,0.0,0.0,0.0,0.0,0,99.99,0.0
20109731,1766326452067495,0,0,0.000325,1.6e-05,1.002805,-0.04628,-0.044052,-0.022919,0.0,0.0,0.0,25.23,-0.0,-0.03,180.0,0.0,0.0,0.0,0.0,0,99.99,0.0
20138730,1766326452096494,0,0,0.000935,0.00087,1.003049,-0.031021,-0.06694,-0.015289,0.0,0.0,0.0,25.23,0.05,-0.05,180.0,0.0,0.0,0.0,0.0,0,99.99,0.0
20170730,1766326452128494,0,0,0.000996,0.000382,1.003355,-0.04628,-0.021164,-0.00766,0.0,0.0,0.0,25.23,0.02,-0.06,180.0,0.0,0.0,0.0,0.0,0,99.99,0.0
20196732,1766326452154496,0,0,0.000508,-0.000229,1.003232,-0.015762,-0.005905,-3.1e-05,0.0,0.0,0.0,25.24,-0.01,-0.03,180.0,0.0,0.0,0.0,0.0,0,99.99,0.0
20224731,1766326452182495,0,0,0.000264,-0.000229,1.002134,-0.015762,-0.013535,0.015228,0.0,0.0,0.0,25.24,-0.01,-0.03,180.0,0.0,0.0,0.0,0.0,0,99.99,0.0
20253730,1766326452211494,0,0,2e-05,0.000443,1.001768,-0.03865,0.009354,-3.1e-05,0.0,0.0,0.0,25.24,0.01,-0.0,180.0,0.0,0.0,0.0,0.0,0,99.99,0.0
20287738,1766326452245502,0,0,-0.000346,0.000565,1.002378,0.007126,-0.021164,-0.00766,0.0,0.0,0.0,25.23,0.05,0.02,180.0,0.0,0.0,0.0,0.0,0,99.99,0.0
20317731,1766326452275495,0,0,-0.000529,0.00087,1.004148,0.014755,-0.021164,-3.1e-05,0.0,0.0,0.0,25.24,0.05,0.02,180.0,0.0,0.0,0.0,0.0,0,99.99,0.0
20345733,1766326452303497,0,0,-0.000285,0.000443,1.002988,0.007126,-0.005905,0.022858,0.0,0.0,0.0,25.24,0.01,0.02,180.0,0.0,0.0,0.0,0.0,0,99.99,0.0
20374731,1766326452332495,0,0,-0.000163,0.000748,1.002256,0.007126,-0.005905,0.007599,0.0,0.0,0.0,25.24,0.06,0.01,180.0,0.0,0.0,0.0,0.0,0,99.99,0.0
20418730,1766326452376494,0,0,0.000203,0.000138,1.003538,-0.015762,0.001724,-3.1e-05,0.0,0.0,0.0,25.25,0.0,-0.02,180.0,0.0,0.0,0.0,0.0,0,99.99,0.0
20448732,1766326452406496,0,0,-0.000224,0.000687,1.004392,-0.023392,-0.028793,0.022858,0.0,0.0,0.0,25.25,0.03,0.0,180.0,0.0,0.0,0.0,0.0,0,99.99,0.0
20476730,1766326452434494,0,0,-0.000163,0.00026,1.003477,-0.008133,-0.028793,-0.00766,0.0,0.0,0.0,25.25,0.0,0.0,180.0,0.0,0.0,0.0,0.0,0,99.99,0.0
20504731,1766326452462495,0,0,-0.000346,-4.6e-05,1.002256,-0.000503,-0.005905,-0.015289,0.0,0.0,0.0,25.25,-0.0,0.02,180.0,0.0,0.0,0.0,0.0,0,99.99,0.0
20533730,1766326452491494,0,0,0.000142,1.6e-05,1.003355,0.014755,0.001724,-0.061066,0.0,0.0,0.0,25.24,-0.01,0.01,180.0,0.0,0.0,0.0,0.0,0,99.99,0.0
20562732,1766326452520496,0,0,-0.000651,0.000382,1.003599,-0.000503,0.001724,-0.061066,0.0,0.0,0.0,25.24,0.02,0.05,180.0,0.0,0.0,0.0,0.0,0,99.99,0.0
20591730,1766326452549494,0,0,0.000142,0.000504,1.002622,-0.008133,-0.021164,-0.038177,0.0,0.0,0.0,25.25,0.01,-0.02,180.0,0.0,0.0,0.0,0.0,0,99.99,0.0
20620732,1766326452578496,0,0,0.000264,0.000626,1.003049,-0.023392,-0.028793,-3.1e-05,0.0,0.0,0.0,25.24,0.02,-0.02,180.0,0.0,0.0,0.0,0.0,0,99.99,0.0
20648730,1766326452606494,0,0,8.1e-05,0.000687,1.002744,0.007126,-0.028793,0.007599,0.0,0.0,0.0,25.24,0.06,-0.0,180.0,0.0,0.0,0.0,0.0,0,99.99,0.0
20677730,1766326452635494,0,0,0.000264,0.000931,1.00311,-0.015762,-0.021164,0.030487,0.0,0.0,0.0,25.24,0.06,-0.02,180.0,0.0,0.0,0.0,0.0,0,99.99,0.0
20706730,1766326452664494,0,0,-0.000285,0.000443,1.002744,-0.008133,-0.005905,0.053375,0.0,0.0,0.0,25.24,0.02,0.02,180.0,0.0,0.0,0.0,0.0,0,99.99,0.0
20735731,1766326452693495,0,0,-0.000468,0.000687,1.001829,-0.008133,-0.021164,-0.00766,0.0,0.0,0.0,25.25,0.04,0.02,180.0,0.0,0.0,0.0,0.0,0,99.99,0.0
20764730,1766326452722494,0,0,-0.000468,0.000687,1.002134,-0.023392,-0.036423,-0.00766,0.0,0.0,0.0,25.24,0.04,0.01,180.0,0.0,0.0,0.0,0.0,0,99.99,0.0
20782731,1766326452740495,0,0,0.000752,0.000138,1.002256,-0.000503,-0.036423,0.007599,0.0,0.0,0.0,25.24,0.0,-0.04,180.0,0.0,0.0,0.0,0.0,0,99.99,0.0
20812730,1766326452770494,0,0,0.000142,-0.000229,1.004148,-0.008133,-0.059311,-3.1e-05,0.0,0.0,0.0,25.24,-0.02,-0.01,180.0,0.0,0.0,0.0,0.0,0,99.99,0.0
20851731,1766326452809495,0,0,-0.000224,0.000748,1.00311,0.022385,-0.028793,0.015228,0.0,0.0,0.0,25.24,0.02,0.01,180.0,0.0,0.0,0.0,0.0,0,99.99,0.0
20879730,1766326452837494,0,0,0.000691,0.000931,1.003294,-0.000503,-0.013535,0.007599,0.0,0.0,0.0,25.24,0.05,-0.04,180.0,0.0,0.0,0.0,0.0,0,99.99,0.0
20908730,1766326452866494,0,0,0.000447,0.001419,1.002988,0.007126,-0.028793,-3.1e-05,0.0,0.0,0.0,25.24,0.1,-0.03,180.0,0.0,0.0,0.0,0.0,0,99.99,0.0
20938730,1766326452896494,0,0,8.1e-05,0.001053,1.004636,0.014755,-0.028793,-0.045807,0.0,0.0,0.0,25.24,0.07,-0.01,180.0,0.0,0.0,0.0,0.0,0,99.99,0.0
20972730,1766326452930494,0,0,0.000508,0.000809,1.005002,-0.008133,-0.036423,-3.1e-05,0.0,0.0,0.0,25.24,0.06,-0.04,180.0,0.0,0.0,0.0,0.0,0,99.99,0.0
21000739,1766326452958503,0,0,0.00063,0.000504,1.003171,-0.03865,-0.021164,-0.015289,0.0,0.0,0.0,25.25,0.03,-0.04,180.0,0.0,0.0,0.0,0.0,0,99.99,0.0
21030730,1766326452988494,0,0,-0.000407,0.000626,1.003416,-0.015762,-0.021164,-3.1e-05,0.0,0.0,0.0,25.24,0.03,0.02,180.0,0.0,0.0,0.0,0.0,0,99.99,0.0
21061731,1766326453019495,0,0,0.000386,0.000504,1.003904,0.030014,-0.044052,-0.022919,0.0,0.0,0.0,25.24,0.02,-0.02,180.0,0.0,0.0,0.0,0.0,0,99.99,0.0
21088731,1766326453046495,0,0,2e-05,0.000443,1.002988,-0.000503,-0.021164,-0.00766,0.0,0.0,0.0,25.24,0.03,-0.0,180.0,0.0,0.0,0.0,0.0,0,99.99,0.0
21116731,1766326453074495,0,0,0.000203,0.000382,1.003843,0.007126,-0.013535,-3.1e-05,0.0,0.0,0.0,25.25,0.02,-0.01,180.0,0.0,0.0,0.0,0.0,0,99.99,0.0
21145731,1766326453103495,0,0,0.000264,0.00026,1.003477,0.007126,-0.021164,0.007599,0.0,0.0,0.0,25.24,0.02,-0.01,180.0,0.0,0.0,0.0,0.0,0,99.99,0.0
21175739,1766326453133503,0,0,0.000569,1.6e-05,1.004392,-0.008133,-0.005905,0.007599,0.0,0.0,0.0,25.25,-0.01,-0.02,180.0,0.0,0.0,0.0,0.0,0,99.99,0.0
21205730,1766326453163494,0,0,0.000142,0.000931,1.005064,0.007126,0.001724,-0.022919,0.0,0.0,0.0,25.25,0.06,-0.03,180.0,0.0,0.0,0.0,0.0,0,99.99,0.0
21220732,1766326453178496,0,0,-4.1e-05,0.000626,1.004636,0.022385,-0.013535,-0.022919,0.0,0.0,0.0,25.25,0.05,0.02,180.0,0.0,0.0,0.0,0.0,0,99.99,0.0
21248730,1766326453206494,0,0,-0.000407,0.000565,1.003171,-0.008133,-0.021164,-0.038177,0.0,0.0,0.0,25.25,0.04,0.04,180.0,0.0,0.0,0.0,0.0,0,99.99,0.0
21279730,1766326453237494,0,0,-0.000285,0.001175,1.001829,-0.000503,-0.021164,-0.022919,0.0,0.0,0.0,25.25,0.08,0.02,180.0,0.0,0.0,0.0,0.0,0,99.99,0.0
21317731,1766326453275495,0,0,-0.000835,0.000504,1.003416,-0.03865,0.001724,-3.1e-05,0.0,0.0,0.0,25.24,0.03,0.05,180.0,0.0,0.0,0.0,0.0,0,99.99,0.0
21347730,1766326453305494,0,0,-0.000163,0.000687,1.003049,-0.023392,-0.036423,-3.1e-05,0.0,0.0,0.0,25.25,0.04,0.01,180.0,0.0,0.0,0.0,0.0,0,99.99,0.0
21376730,1766326453334494,0,0,-0.000713,0.000748,1.002683,-0.015762,-0.013535,-0.00766,0.0,0.0,0.0,25.24,0.04,0.04,180.0,0.0,0.0,0.0,0.0,0,99.99,0.0
21411734,1766326453369498,0,0,0.000142,0.000687,1.003232,-0.000503,0.001724,0.015228,0.0,0.0,0.0,25.24,0.04,-0.01,180.0,0.0,0.0,0.0,0.0,0,99.99,0.0
21457737,1766326453415501,0,0,-0.000285,0.000382,1.004148,0.022385,-0.005905,-3.1e-05,0.0,0.0,0.0,25.25,0.04,0.02,180.0,0.0,0.0,0.0,0.0,0,99.99,0.0
21493732,1766326453451496,0,0,-0.000468,0.000443,1.00311,0.014755,-0.051682,0.038116,0.0,0.0,0.0,25.24,0.03,0.02,180.0,0.0,0.0,0.0,0.0,0,99.99,0.0
21552730,1766326453510494,0,0,-0.000346,7.7e-05,1.004331,-0.000503,-0.028793,0.030487,0.0,0.0,0.0,25.24,0.02,0.01,180.0,0.0,0.0,0.0,0.0,0,99.99,0.0
21586730,1766326453544494,0,0,-0.000835,0.000321,1.004148,-0.03865,-0.021164,-0.015289,0.0,0.0,0.0,25.25,0.01,0.04,180.0,0.0,0.0,0.0,0.0,0,99.99,0.0
21613731,1766326453571495,0,0,-0.001323,-4.6e-05,1.004941,-0.015762,-0.028793,-0.045807,0.0,0.0,0.0,25.24,-0.0,0.08,180.0,0.0,0.0,0.0,0.0,0,99.99,0.0
21643730,1766326453601494,0,0,-0.00114,0.00026,1.003416,-0.04628,-0.013535,-0.061066,0.0,0.0,0.0,25.24,0.01,0.07,180.0,0.0,0.0,0.0,0.0,0,99.99,0.0
21681733,1766326453639497,0,0,-0.000774,0.000565,1.004087,-0.000503,-0.013535,-0.045807,0.0,0.0,0.0,25.25,0.03,0.04,180.0,0.0,0.0,0.0,0.0,0,99.99,0.0
21710730,1766326453668494,0,0,-0.001018,0.000931,1.003599,-0.000503,-0.036423,-3.1e-05,0.0,0.0,0.0,25.25,0.05,0.06,180.0,0.0,0.0,0.0,0.0,0,99.99,0.0
21741730,1766326453699494,0,0,0.000203,0.00087,1.003355,-0.008133,-0.005905,-0.00766,0.0,0.0,0.0,25.25,0.04,-0.03,180.0,0.0,0.0,0.0,0.0,0,99.99,0.0
21771731,1766326453729495,0,0,-0.000407,0.00087,1.003355,-0.015762,-0.005905,0.007599,0.0,0.0,0.0,25.24,0.06,0.01,180.0,0.0,0.0,0.0,0.0,0,99.99,0.0
21802731,1766326453760495,0,0,-0.000285,0.000992,1.004392,-0.04628,-0.013535,-0.030548,0.0,0.0,0.0,25.25,0.06,0.02,180.0,0.0,0.0,0.0,0.0,0,99.99,0.0
21846731,1766326453804495,0,0,-0.000651,0.00087,1.004087,-0.023392,-0.028793,0.015228,0.0,0.0,0.0,25.25,0.04,0.03,180.0,0.0,0.0,0.0,0.0,0,99.99,0.0
21876730,1766326453834494,0,0,-0.000529,0.000199,1.002866,-0.000503,-0.044052,-3.1e-05,0.0,0.0,0.0,25.25,-0.01,0.03,180.0,0.0,0.0,0.0,0.0,0,99.99,0.0
21906731,1766326453864495,0,0,-0.000346,-0.000229,1.003049,-0.015762,-0.051682,0.007599,0.0,0.0,0.0,25.24,-0.02,0.02,180.0,0.0,0.0,0.0,0.0,0,99.99,0.0
21935732,1766326453893496,0,0,-0.000651,0.000565,1.004514,-0.031021,-0.021164,0.022858,0.0,0.0,0.0,25.25,0.03,0.02,180.0,0.0,0.0,0.0,0.0,0,99.99,0.0
21964732,1766326453922496,0,0,8.1e-05,0.000443,1.004392,-0.015762,0.001724,0.038116,0.0,0.0,0.0,25.25,0.04,-0.02,180.0,0.0,0.0,0.0,0.0,0,99.99,0.0
21995730,1766326453953494,0,0,-0.000346,0.00026,1.003232,0.007126,-0.028793,0.038116,0.0,0.0,0.0,25.25,0.01,0.02,180.0,0.0,0.0,0.0,0.0,0,99.99,0.0
22026730,1766326453984494,0,0,-0.000224,0.000504,1.003232,-0.000503,-0.021164,0.007599,0.0,0.0,0.0,25.24,0.03,0.01,180.0,0.0,0.0,0.0,0.0,0,99.99,0.0
22056730,1766326454014494,0,0,-0.000468,0.000504,1.003721,0.014755,-0.036423,-0.022919,0.0,0.0,0.0,25.24,0.02,0.02,180.0,0.0,0.0,0.0,0.0,0,99.99,0.0
22086730,1766326454044494,0,0,-0.000346,0.00087,1.005002,0.014755,-0.044052,-0.061066,0.0,0.0,0.0,25.25,0.04,0.03,180.0,0.0,0.0,0.0,0.0,0,99.99,0.0
22117980,1766326454075744,0,0,-0.000102,-0.000168,1.004453,0.014755,-0.028793,-0.030548,0.0,0.0,0.0,25.24,-0.02,-0.0,180.0,0.0,0.0,0.0,0.0,0,99.99,0.0
22150730,1766326454108494,0,0,-0.000102,-4.6e-05,1.003538,0.014755,0.016983,-0.00766,0.0,0.0,0.0,25.24,-0.0,0.01,180.0,0.0,0.0,0.0,0.0,0,99.99,0.0
22178731,1766326454136495,0,0,-4.1e-05,0.000443,1.00366,-0.000503,0.001724,0.030487,0.0,0.0,0.0,25.25,0.03,-0.01,180.0,0.0,0.0,0.0,0.0,0,99.99,0.0
22207730,1766326454165494,0,0,-0.000468,0.000321,1.002195,-0.008133,-0.013535,-3.1e-05,0.0,0.0,0.0,25.25,0.02,0.03,180.0,0.0,0.0,0.0,0.0,0,99.99,0.0
22237730,1766326454195494,0,0,-0.000346,0.000321,1.002683,0.007126,-0.044052,-0.015289,0.0,0.0,0.0,25.25,0.02,0.01,180.0,0.0,0.0,0.0,0.0,0,99.99,0.0
22279732,1766326454237496,0,0,-0.000285,0.000199,1.002256,-0.008133,-0.028793,0.022858,0.0,0.0,0.0,25.24,0.01,0.02,180.0,0.0,0.0,0.0,0.0,0,99.99,0.0
22310730,1766326454268494,0,0,-0.000285,0.000504,1.003904,0.014755,0.009354,-0.038177,0.0,0.0,0.0,25.24,0.03,0.02,180.0,0.0,0.0,0.0,0.0,0,99.99,0.0
22340730,1766326454298494,0,0,8.1e-05,0.000321,1.004331,0.007126,0.001724,-0.045807,0.0,0.0,0.0,25.25,0.02,0.01,180.0,0.0,0.0,0.0,0.0,0,99.99,0.0
22374732,1766326454332496,0,0,-4.1e-05,0.000565,1.002988,-0.008133,0.024612,-0.030548,0.0,0.0,0.0,25.26,0.02,0.01,180.0,0.0,0.0,0.0,0.0,0,99.99,0.0
22408738,1766326454366502,0,0,0.000569,0.000748,1.002317,0.007126,0.024612,-0.015289,0.0,0.0,0.0,25.25,0.05,-0.04,180.0,0.0,0.0,0.0,0.0,0,99.99,0.0
22438730,1766326454396494,0,0,0.000386,0.000504,1.002988,-0.000503,0.009354,-3.1e-05,0.0,0.0,0.0,25.25,0.02,-0.01,180.0,0.0,0.0,0.0,0.0,0,99.99,0.0
22468731,1766326454426495,0,0,0.000203,0.000443,1.002866,-0.031021,-0.013535,-0.00766,0.0,0.0,0.0,25.25,0.02,-0.01,180.0,0.0,0.0,0.0,0.0,0,99.99,0.0
22498738,1766326454456502,0,0,-0.000163,0.00026,1.003782,-0.023392,-0.005905,0.007599,0.0,0.0,0.0,25.25,0.01,0.0,180.0,0.0,0.0,0.0,0.0,0,99.99,0.0
22527730,1766326454485494,0,0,-0.000651,0.000199,1.002927,-0.023392,-0.028793,0.030487,0.0,0.0,0.0,25.25,0.01,0.05,180.0,0.0,0.0,0.0,0.0,0,99.99,0.0
22557730,1766326454515494,0,0,-0.000407,0.000321,1.004026,-0.04628,-0.021164,-0.00766,0.0,0.0,0.0,25.24,0.03,0.02,180.0,0.0,0.0,0.0,0.0,0,99.99,0.0
22587734,1766326454545498,0,0,-0.000774,1.6e-05,1.003721,-0.008133,-0.021164,-0.076324,0.0,0.0,0.0,25.25,-0.0,0.04,180.0,0.0,0.0,0.0,0.0,0,99.99,0.0
22618730,1766326454576494,0,0,-0.000529,0.000321,1.004087,-0.015762,-0.036423,-0.022919,0.0,0.0,0.0,25.24,0.02,0.03,180.0,0.0,0.0,0.0,0.0,0,99.99,0.0
22648731,1766326454606495,0,0,-0.000774,0.000504,1.003843,-0.000503,-0.059311,-0.022919,0.0,0.0,0.0,25.25,0.02,0.04,180.0,0.0,0.0,0.0,0.0,0,99.99,0.0
22676730,1766326454634494,0,0,-0.000651,0.000443,1.00366,0.014755,-0.036423,-0.015289,0.0,0.0,0.0,25.25,0.02,0.03,180.0,0.0,0.0,0.0,0.0,0,99.99,0.0
22709732,1766326454667496,0,0,-0.000713,0.000809,1.002195,-0.008133,-0.051682,-0.022919,0.0,0.0,0.0,25.25,0.03,0.03,180.0,0.0,0.0,0.0,0.0,0,99.99,0.0
22747731,1766326454705495,0,0,-0.001201,0.000748,1.00427,0.014755,-0.036423,0.015228,0.0,0.0,0.0,25.24,0.06,0.08,180.0,0.0,0.0,0.0,0.0,0,99.99,0.0
22778730,1766326454736494,0,0,-0.000224,0.000992,1.003965,-0.031021,-0.051682,-0.022919,0.0,0.0,0.0,25.24,0.04,0.02,180.0,0.0,0.0,0.0,0.0,0,99.99,0.0
22807730,1766326454765494,0,0,-0.000651,0.000443,1.003904,0.014755,-0.044052,0.038116,0.0,0.0,0.0,25.25,0.02,0.05,180.0,0.0,0.0,0.0,0.0,0,99.99,0.0
22826732,1766326454784496,0,0,-0.000346,0.000382,1.003416,-0.015762,-0.051682,0.038116,0.0,0.0,0.0,25.25,0.03,0.03,180.0,0.0,0.0,0.0,0.0,0,99.99,0.0
22856731,1766326454814495,0,0,-0.000468,0.00087,1.003294,-0.023392,-0.013535,0.007599,0.0,0.0,0.0,25.26,0.04,0.01,180.0,0.0,0.0,0.0,0.0,0,99.99,0.0
22886730,1766326454844494,0,0,-0.000102,0.000687,1.00311,-0.03865,-0.028793,-0.00766,0.0,0.0,0.0,25.25,0.03,0.02,180.0,0.0,0.0,0.0,0.0,0,99.99,0.0
22917738,1766326454875502,0,0,-4.1e-05,0.000565,1.001768,-0.053909,-0.036423,-3.1e-05,0.0,0.0,0.0,25.25,0.02,0.0,180.0,0.0,0.0,0.0,0.0,0,99.99,0.0
22949731,1766326454907495,0,0,-0.000896,0.000138,1.003904,0.014755,-0.036423,0.038116,0.0,0.0,0.0,25.23,0.01,0.07,180.0,0.0,0.0,0.0,0.0,0,99.99,0.0
22977730,1766326454935494,0,0,-0.000835,0.000321,1.00366,-0.008133,-0.036423,0.053375,0.0,0.0,0.0,25.24,0.02,0.03,180.0,0.0,0.0,0.0,0.0,0,99.99,0.0
23005731,1766326454963495,0,0,-0.001201,-0.0009,1.003232,-0.03865,-0.028793,-3.1e-05,0.0,0.0,0.0,25.24,-0.07,0.08,180.0,0.0,0.0,0.0,0.0,0,99.99,0.0
23036731,1766326454994495,0,0,-0.000468,-0.000412,1.003721,-0.023392,0.001724,-0.022919,0.0,0.0,0.0,25.24,-0.01,0.03,180.0,0.0,0.0,0.0,0.0,0,99.99,0.0
23066730,1766326455024494,0,0,0.000203,0.000626,1.004209,-0.015762,-0.028793,-3.1e-05,0.0,0.0,0.0,25.25,0.05,-0.02,180.0,0.0,0.0,0.0,0.0,0,99.99,0.0
23096730,1766326455054494,0,0,-0.000468,0.000992,1.003232,-0.015762,-0.021164,-3.1e-05,0.0,0.0,0.0,25.24,0.06,0.02,180.0,0.0,0.0,0.0,0.0,0,99.99,0.0
23126730,1766326455084494,0,0,-0.000102,0.000565,1.002439,-0.015762,-0.051682,-3.1e-05,0.0,0.0,0.0,25.24,0.03,-0.0,180.0,0.0,0.0,0.0,0.0,0,99.99,0.0
23157980,1766326455115744,0,0,-0.000224,0.000382,1.002622,-0.023392,-0.044052,0.007599,0.0,0.0,0.0,25.24,0.03,-0.0,180.0,0.0,0.0,0.0,0.0,0,99.99,0.0
23203731,1766326455161495,0,0,-0.000651,0.00026,1.00488,-0.053909,-0.044052,-3.1e-05,0.0,0.0,0.0,25.24,0.01,0.04,180.0,0.0,0.0,0.0,0.0,0,99.99,0.0
23232738,1766326455190502,0,0,-0.000407,-0.000229,1.004331,-0.04628,-0.044052,-0.061066,0.0,0.0,0.0,25.25,-0.0,0.02,180.0,0.0,0.0,0.0,0.0,0,99.99,0.0
23262730,1766326455220494,0,0,-0.000285,-0.000168,1.003782,-0.008133,-0.036423,-0.015289,0.0,0.0,0.0,25.25,0.0,0.03,180.0,0.0,0.0,0.0,0.0,0,99.99,0.0
23292731,1766326455250495,0,0,-0.000224,0.000382,1.003049,0.007126,-0.021164,0.038116,0.0,0.0,0.0,25.24,0.02,0.0,180.0,0.0,0.0,0.0,0.0,0,99.99,0.0
23323730,1766326455281494,0,0,-0.000407,7.7e-05,1.003171,-0.008133,-0.036423,0.022858,0.0,0.0,0.0,25.24,-0.01,0.04,180.0,0.0,0.0,0.0,0.0,0,99.99,0.0
23352731,1766326455310495,0,0,-0.00059,0.000565,1.002988,0.022385,-0.059311,-0.022919,0.0,0.0,0.0,25.25,0.05,0.05,180.0,0.0,0.0,0.0,0.0,0,99.99,0.0
23382730,1766326455340494,0,0,-0.000285,0.000199,1.003477,-0.000503,-0.028793,-0.015289,0.0,0.0,0.0,25.25,0.03,0.01,180.0,0.0,0.0,0.0,0.0,0,99.99,0.0
23413731,1766326455371495,0,0,2e-05,1.6e-05,1.00311,-0.000503,-0.036423,-0.022919,0.0,0.0,0.0,25.24,0.0,-0.0,180.0,0.0,0.0,0.0,0.0,0,99.99,0.0
23444732,1766326455402496,0,0,-0.00059,0.000382,1.004697,0.007126,-0.013535,0.038116,0.0,0.0,0.0,25.24,0.02,0.03,180.0,0.0,0.0,0.0,0.0,0,99.99,0.0
23473730,1766326455431494,0,0,-0.000224,-0.000107,1.004331,0.014755,-0.013535,0.053375,0.0,0.0,0.0,25.25,-0.01,0.01,180.0,0.0,0.0,0.0,0.0,0,99.99,0.0
23502732,1766326455460496,0,0,2e-05,0.000199,1.003049,-0.015762,0.001724,0.007599,0.0,0.0,0.0,25.25,0.01,-0.0,180.0,0.0,0.0,0.0,0.0,0,99.99,0.0
23532732,1766326455490496,0,0,-0.000163,0.000687,1.003538,-0.031021,-0.005905,-3.1e-05,0.0,0.0,0.0,25.25,0.04,0.01,180.0,0.0,0.0,0.0,0.0,0,99.99,0.0
23563731,1766326455521495,0,0,-0.000285,0.00026,1.004697,-0.031021,0.001724,-0.022919,0.0,0.0,0.0,25.24,0.01,0.03,180.0,0.0,0.0,0.0,0.0,0,99.99,0.0
23592730,1766326455550494,0,0,0.000386,0.00026,1.003843,-0.023392,0.016983,-0.022919,0.0,0.0,0.0,25.24,0.01,-0.02,180.0,0.0,0.0,0.0,0.0,0,99.99,0.0
23635732,1766326455593496,0,0,-0.000346,0.000382,1.003171,-0.03865,0.024612,-0.015289,0.0,0.0,0.0,25.24,0.01,0.01,180.0,0.0,0.0,0.0,0.0,0,99.99,0.0
23665730,1766326455623494,0,0,-0.000835,-0.000229,1.002561,-0.03865,-0.005905,0.007599,0.0,0.0,0.0,25.25,-0.01,0.03,180.0,0.0,0.0,0.0,0.0,0,99.99,0.0
23695730,1766326455653494,0,0,-0.000835,7.7e-05,1.003904,0.007126,-0.036423,-0.00766,0.0,0.0,0.0,25.25,0.02,0.03,180.0,0.0,0.0,0.0,0.0,0,99.99,0.0
23727730,1766326455685494,0,0,-0.000407,0.000321,1.00366,0.014755,-0.021164,0.015228,0.0,0.0,0.0,25.25,0.01,0.03,180.0,0.0,0.0,0.0,0.0,0,99.99,0.0
23754731,1766326455712495,0,0,-0.000224,0.000504,1.003416,-0.023392,-0.036423,-3.1e-05,0.0,0.0,0.0,25.25,0.04,0.02,180.0,0.0,0.0,0.0,0.0,0,99.99,0.0
23790731,1766326455748495,0,0,-0.000713,0.000748,1.003477,-0.008133,-0.051682,0.015228,0.0,0.0,0.0,25.26,0.03,0.04,180.0,0.0,0.0,0.0,0.0,0,99.99,0.0
23820730,1766326455778494,0,0,-0.000407,0.00026,1.004636,-0.015762,-0.059311,0.038116,0.0,0.0,0.0,25.26,0.03,0.02,180.0,0.0,0.0,0.0,0.0,0,99.99,0.0
23851737,1766326455809501,0,0,-0.000346,0.000321,1.004148,-0.008133,-0.036423,0.038116,0.0,0.0,0.0,25.25,0.01,0.0,180.0,0.0,0.0,0.0,0.0,0,99.99,0.0
23880730,1766326455838494,0,0,-0.000529,0.00026,1.00427,-0.053909,-0.028793,-0.00766,0.0,0.0,0.0,25.26,-0.01,0.03,180.0,0.0,0.0,0.0,0.0,0,99.99,0.0
23910730,1766326455868494,0,0,-0.000224,0.00026,1.002439,-0.015762,-0.036423,0.022858,0.0,0.0,0.0,25.25,0.0,0.01,180.0,0.0,0.0,0.0,0.0,0,99.99,0.0
23940733,1766326455898497,0,0,-4.1e-05,0.000199,1.003965,0.007126,0.05513,0.007599,0.0,0.0,0.0,25.25,-0.0,0.0,180.0,0.0,0.0,0.0,0.0,0,99.99,0.0
23971731,1766326455929495,0,0,-0.000224,0.000138,1.003477,-0.008133,0.016983,-3.1e-05,0.0,0.0,0.0,25.25,0.01,-0.0,180.0,0.0,0.0,0.0,0.0,0,99.99,0.0
24001730,1766326455959494,0,0,-0.000285,-0.000168,1.0025,0.014755,-0.021164,0.007599,0.0,0.0,0.0,25.24,-0.02,0.02,180.0,0.0,0.0,0.0,0.0,0,99.99,0.0
24029731,1766326455987495,0,0,-0.000163,-0.000168,1.003538,-0.000503,-0.036423,0.015228,0.0,0.0,0.0,25.24,-0.02,0.01,180.0,0.0,0.0,0.0,0.0,0,99.99,0.0
24071731,1766326456029495,0,0,-0.000835,7.7e-05,1.003538,0.007126,-0.044052,-0.022919,0.0,0.0,0.0,25.25,0.0,0.04,180.0,0.0,0.0,0.0,0.0,0,99.99,0.0
24101980,1766326456059744,0,0,-0.000224,0.000748,1.002439,-0.015762,-0.028793,0.015228,0.0,0.0,0.0,25.25,0.03,0.03,180.0,0.0,0.0,0.0,0.0,0,99.99,0.0
24132733,1766326456090497,0,0,-0.000835,0.001236,1.002683,-0.000503,-0.013535,0.015228,0.0,0.0,0.0,25.25,0.07,0.05,180.0,0.0,0.0,0.0,0.0,0,99.99,0.0
24161730,1766326456119494,0,0,-0.000407,0.000565,1.002561,-0.000503,-0.005905,0.022858,0.0,0.0,0.0,25.24,0.02,0.04,180.0,0.0,0.0,0.0,0.0,0,99.99,0.0
24192731,1766326456150495,0,0,-0.000285,0.000199,1.003782,-0.008133,-0.021164,0.038116,0.0,0.0,0.0,25.25,0.03,0.03,180.0,0.0,0.0,0.0,0.0,0,99.99,0.0
24222730,1766326456180494,0,0,-0.000224,0.000565,1.003477,-0.031021,-0.028793,0.007599,0.0,0.0,0.0,25.25,0.03,0.03,180.0,0.0,0.0,0.0,0.0,0,99.99,0.0
24249730,1766326456207494,0,0,-0.000285,0.000687,1.003294,-0.008133,-0.036423,0.007599,0.0,0.0,0.0,25.24,0.03,0.02,180.0,0.0,0.0,0.0,0.0,0,99.99,0.0
24278737,1766326456236501,0,0,-0.000468,0.000138,1.002317,-0.008133,-0.005905,0.015228,0.0,0.0,0.0,25.25,0.02,0.03,180.0,0.0,0.0,0.0,0.0,0,99.99,0.0
24305730,1766326456263494,0,0,-0.000651,0.000504,1.003171,-0.015762,-0.013535,-0.00766,0.0,0.0,0.0,25.25,0.03,0.04,180.0,0.0,0.0,0.0,0.0,0,99.99,0.0
24337730,1766326456295494,0,0,-0.000468,0.000687,1.003294,-0.031021,-0.028793,0.022858,0.0,0.0,0.0,25.25,0.03,0.03,180.0,0.0,0.0,0.0,0.0,0,99.99,0.0
24367730,1766326456325494,0,0,0.000142,-0.000168,1.002988,-0.015762,-0.036423,-3.1e-05,0.0,0.0,0.0,25.26,-0.01,-0.0,180.0,0.0,0.0,0.0,0.0,0,99.99,0.0
24396730,1766326456354494,0,0,-0.000285,0.000748,1.001768,-0.008133,-0.028793,-0.030548,0.0,0.0,0.0,25.25,0.04,0.01,180.0,0.0,0.0,0.0,0.0,0,99.99,0.0
24424731,1766326456382495,0,0,2e-05,0.000748,1.002744,-0.031021,-0.013535,0.015228,0.0,0.0,0.0,25.25,0.05,0.01,180.0,0.0,0.0,0.0,0.0,0,99.99,0.0
24446730,1766326456404494,0,0,-0.000651,0.000687,1.004209,-0.03865,-0.036423,-3.1e-05,0.0,0.0,0.0,25.26,0.04,0.05,180.0,0.0,0.0,0.0,0.0,0,99.99,0.0
24478732,1766326456436496,0,0,-0.000713,0.001053,1.004392,-0.053909,-0.028793,0.007599,0.0,0.0,0.0,25.26,0.05,0.05,180.0,0.0,0.0,0.0,0.0,0,99.99,0.0
24517730,1766326456475494,0,0,-0.000224,0.000931,1.003171,-0.031021,-0.036423,-0.015289,0.0,0.0,0.0,25.25,0.07,0.02,180.0,0.0,0.0,0.0,0.0,0,99.99,0.0
24557731,1766326456515495,0,0,2e-05,0.00087,1.003843,0.007126,-0.051682,-0.045807,0.0,0.0,0.0,25.25,0.04,-0.01,180.0,0.0,0.0,0.0,0.0,0,99.99,0.0
24586730,1766326456544494,0,0,-0.000163,0.000565,1.004087,0.022385,0.001724,-0.038177,0.0,0.0,0.0,25.25,0.03,0.03,180.0,0.0,0.0,0.0,0.0,0,99.99,0.0
24616731,1766326456574495,0,0,0.000142,0.000565,1.003416,0.022385,-0.013535,-0.045807,0.0,0.0,0.0,25.25,0.04,-0.02,180.0,0.0,0.0,0.0,0.0,0,99.99,0.0
24647730,1766326456605494,0,0,-4.1e-05,0.000565,1.00311,0.052902,-0.028793,-3.1e-05,0.0,0.0,0.0,25.25,0.02,-0.01,180.0,0.0,0.0,0.0,0.0,0,99.99,0.0
24677730,1766326456635494,0,0,-0.000529,0.00087,1.00311,0.037643,-0.036423,0.022858,0.0,0.0,0.0,25.24,0.06,0.03,180.0,0.0,0.0,0.0,0.0,0,99.99,0.0
24707731,1766326456665495,0,0,-4.1e-05,0.00087,1.003721,0.014755,-0.021164,0.061005,0.0,0.0,0.0,25.25,0.05,0.0,180.0,0.0,0.0,0.0,0.0,0,99.99,0.0
24736738,1766326456694502,0,0,8.1e-05,0.000626,1.003599,-0.015762,-0.021164,0.076263,0.0,0.0,0.0,25.26,0.03,-0.0,180.0,0.0,0.0,0.0,0.0,0,99.99,0.0
24767730,1766326456725494,0,0,-0.000224,0.001358,1.003171,-0.03865,-0.005905,0.007599,0.0,0.0,0.0,25.26,0.07,0.02,180.0,0.0,0.0,0.0,0.0,0,99.99,0.0
24797731,1766326456755495,0,0,-0.000346,0.001236,1.002012,-0.031021,-0.013535,0.015228,0.0,0.0,0.0,25.25,0.08,0.04,180.0,0.0,0.0,0.0,0.0,0,99.99,0.0
24826732,1766326456784496,0,0,-0.000468,0.000687,1.003294,-0.023392,-0.013535,-0.00766,0.0,0.0,0.0,25.24,0.03,0.02,180.0,0.0,0.0,0.0,0.0,0,99.99,0.0
24855731,1766326456813495,0,0,-0.000102,0.00148,1.004148,-0.023392,0.001724,0.007599,0.0,0.0,0.0,25.25,0.07,0.02,180.0,0.0,0.0,0.0,0.0,0,99.99,0.0
24885731,1766326456843495,0,0,-0.000163,0.000809,1.003171,-0.03865,-0.036423,-0.015289,0.0,0.0,0.0,25.25,0.03,0.01,180.0,0.0,0.0,0.0,0.0,0,99.99,0.0
24916731,1766326456874495,0,0,0.000203,0.001053,1.003171,0.007126,-0.021164,-3.1e-05,0.0,0.0,0.0,25.25,0.06,-0.01,180.0,0.0,0.0,0.0,0.0,0,99.99,0.0
24945731,1766326456903495,0,0,-0.000529,0.000321,1.003782,0.014755,-0.044052,0.015228,0.0,0.0,0.0,25.24,0.01,0.03,180.0,0.0,0.0,0.0,0.0,0,99.99,0.0
24988731,1766326456946495,0,0,-0.001445,-4.6e-05,1.003599,0.014755,-0.051682,-0.038177,0.0,0.0,0.0,25.25,-0.0,0.08,180.0,0.0,0.0,0.0,0.0,0,99.99,0.0
25018730,1766326456976494,0,0,-0.000529,0.000565,1.0025,0.037643,-0.044052,-3.1e-05,0.0,0.0,0.0,25.26,0.04,0.02,180.0,0.0,0.0,0.0,0.0,0,99.99,0.0
25049730,1766326457007494,0,0,-0.000713,0.000138,1.003232,0.022385,-0.028793,0.015228,0.0,0.0,0.0,25.25,0.01,0.04,180.0,0.0,0.0,0.0,0.0,0,99.99,0.0
25080730,1766326457038494,0,0,-0.000468,1.6e-05,1.003599,-0.008133,-0.013535,-3.1e-05,0.0,0.0,0.0,25.25,-0.01,0.03,180.0,0.0,0.0,0.0,0.0,0,99.99,0.0
25108730,1766326457066494,0,0,-0.000285,1.6e-05,1.002988,-0.000503,-0.021164,0.007599,0.0,0.0,0.0,25.26,0.01,0.03,180.0,0.0,0.0,0.0,0.0,0,99.99,0.0
25137731,1766326457095495,0,0,-0.000163,0.000382,1.002988,-0.000503,0.001724,-0.038177,0.0,0.0,0.0,25.27,0.03,0.02,180.0,0.0,0.0,0.0,0.0,0,99.99,0.0
25169731,1766326457127495,0,0,8.1e-05,0.00026,1.002012,-0.015762,-0.036423,-0.061066,0.0,0.0,0.0,25.25,-0.0,-0.01,180.0,0.0,0.0,0.0,0.0,0,99.99,0.0
25200734,1766326457158498,0,0,-4.1e-05,0.000382,1.003843,-0.008133,-0.044052,-0.053436,0.0,0.0,0.0,25.24,0.04,0.01,180.0,0.0,0.0,0.0,0.0,0,99.99,0.0
25229730,1766326457187494,0,0,-0.000651,0.000443,1.004331,-0.015762,-0.051682,-0.022919,0.0,0.0,0.0,25.25,0.03,0.04,180.0,0.0,0.0,0.0,0.0,0,99.99,0.0
25259731,1766326457217495,0,0,-0.00059,0.000748,1.002927,-0.000503,-0.028793,-0.030548,0.0,0.0,0.0,25.25,0.04,0.03,180.0,0.0,0.0,0.0,0.0,0,99.99,0.0
25307730,1766326457265494,0,0,-0.000529,0.000504,1.003232,-0.015762,-0.028793,-3.1e-05,0.0,0.0,0.0,25.25,0.04,0.03,180.0,0.0,0.0,0.0,0.0,0,99.99,0.0
25337731,1766326457295495,0,0,-0.000529,0.000626,1.004026,-0.053909,-0.036423,0.030487,0.0,0.0,0.0,25.26,0.04,0.03,180.0,0.0,0.0,0.0,0.0,0,99.99,0.0
25366731,1766326457324495,0,0,-4.1e-05,0.001175,1.003477,-0.015762,-0.044052,-0.022919,0.0,0.0,0.0,25.26,0.06,-0.01,180.0,0.0,0.0,0.0,0.0,0,99.99,0.0
25396737,1766326457354501,0,0,-0.000224,0.000931,1.002073,-0.000503,-0.028793,-0.030548,0.0,0.0,0.0,25.25,0.06,0.0,180.0,0.0,0.0,0.0,0.0,0,99.99,0.0
25436730,1766326457394494,0,0,-0.000285,0.001053,1.002805,0.037643,-0.028793,0.007599,0.0,0.0,0.0,25.26,0.08,0.01,180.0,0.0,0.0,0.0,0.0,0,99.99,0.0
25465730,1766326457423494,0,0,-0.000774,0.000626,1.003416,0.014755,-0.028793,-0.00766,0.0,0.0,0.0,25.27,0.04,0.06,180.0,0.0,0.0,0.0,0.0,0,99.99,0.0
25494730,1766326457452494,0,0,-0.000835,7.7e-05,1.002744,0.022385,-0.028793,-0.015289,0.0,0.0,0.0,25.26,-0.01,0.04,180.0,0.0,0.0,0.0,0.0,0,99.99,0.0
25522730,1766326457480494,0,0,-0.000774,0.000504,1.001829,0.014755,-0.036423,0.022858,0.0,0.0,0.0,25.26,0.03,0.05,180.0,0.0,0.0,0.0,0.0,0,99.99,0.0
25552731,1766326457510495,0,0,-0.000224,0.000809,1.002012,-0.008133,-0.036423,0.030487,0.0,0.0,0.0,25.26,0.05,0.01,180.0,0.0,0.0,0.0,0.0,0,99.99,0.0
25580730,1766326457538494,0,0,-4.1e-05,0.001114,1.002561,-0.015762,-0.044052,0.015228,0.0,0.0,0.0,25.25,0.06,-0.0,180.0,0.0,0.0,0.0,0.0,0,99.99,0.0
25610730,1766326457568494,0,0,2e-05,0.001114,1.003294,-0.000503,-0.013535,-0.00766,0.0,0.0,0.0,25.26,0.07,-0.01,180.0,0.0,0.0,0.0,0.0,0,99.99,0.0
25641730,1766326457599494,0,0,-4.1e-05,0.001175,1.002195,-0.000503,-0.028793,-0.00766,0.0,0.0,0.0,25.26,0.07,-0.01,180.0,0.0,0.0,0.0,0.0,0,99.99,0.0
25668731,1766326457626495,0,0,-0.000224,0.000931,1.002134,-0.000503,-0.028793,-3.1e-05,0.0,0.0,0.0,25.25,0.06,0.02,180.0,0.0,0.0,0.0,0.0,0,99.99,0.0
25696731,1766326457654495,0,0,-0.000529,0.001175,1.003843,0.007126,-0.013535,-0.00766,0.0,0.0,0.0,25.26,0.06,0.02,180.0,0.0,0.0,0.0,0.0,0,99.99,0.0
25725730,1766326457683494,0,0,-0.00059,0.000626,1.002805,0.022385,-0.005905,-3.1e-05,0.0,0.0,0.0,25.25,0.02,0.04,180.0,0.0,0.0,0.0,0.0,0,99.99,0.0
25755731,1766326457713495,0,0,-0.000529,0.000992,1.0025,0.014755,-0.021164,-0.00766,0.0,0.0,0.0,25.25,0.06,0.03,180.0,0.0,0.0,0.0,0.0,0,99.99,0.0
25784730,1766326457742494,0,0,-0.000774,0.000809,1.003049,0.022385,-0.051682,-0.038177,0.0,0.0,0.0,25.26,0.04,0.03,180.0,0.0,0.0,0.0,0.0,0,99.99,0.0
25813739,1766326457771503,0,0,-0.001384,0.001419,1.002439,-0.015762,-0.051682,-0.022919,0.0,0.0,0.0,25.25,0.08,0.09,180.0,0.0,0.0,0.0,0.0,0,99.99,0.0
25841731,1766326457799495,0,0,-0.000407,0.001358,1.00189,-0.015762,-0.059311,-0.022919,0.0,0.0,0.0,25.25,0.08,0.0,180.0,0.0,0.0,0.0,0.0,0,99.99,0.0
25893730,1766326457851494,0,0,-0.000163,0.001236,1.002805,-0.000503,0.009354,0.030487,0.0,0.0,0.0,25.25,0.07,0.01,180.0,0.0,0.0,0.0,0.0,0,99.99,0.0
25922731,1766326457880495,0,0,-0.000224,0.000809,1.002195,-0.008133,-0.013535,0.007599,0.0,0.0,0.0,25.25,0.05,0.02,180.0,0.0,0.0,0.0,0.0,0,99.99,0.0
25951731,1766326457909495,0,0,-0.000529,0.000565,1.003232,0.007126,-0.044052,-0.00766,0.0,0.0,0.0,25.25,0.03,0.03,180.0,0.0,0.0,0.0,0.0,0,99.99,0.0
25979730,1766326457937494,0,0,-0.000102,0.001419,1.002805,-0.023392,-0.028793,0.007599,0.0,0.0,0.0,25.25,0.09,0.02,180.0,0.0,0.0,0.0,0.0,0,99.99,0.0
26008730,1766326457966494,0,0,-0.000957,0.001358,1.002744,-0.015762,-0.044052,-0.022919,0.0,0.0,0.0,25.25,0.06,0.06,180.0,0.0,0.0,0.0,0.0,0,99.99,0.0
26038730,1766326457996494,0,0,-0.001079,0.000321,1.002744,-0.008133,-0.028793,-3.1e-05,0.0,0.0,0.0,25.25,0.02,0.06,180.0,0.0,0.0,0.0,0.0,0,99.99,0.0
26060731,1766326458018495,0,0,-0.000774,0.000138,1.003477,-0.008133,-0.013535,-0.030548,0.0,0.0,0.0,25.25,0.01,0.03,180.0,0.0,0.0,0.0,0.0,0,99.99,0.0
26088731,1766326458046495,0,0,2e-05,0.00026,1.004453,-0.008133,-0.044052,0.015228,0.0,0.0,0.0,25.25,0.03,-0.0,180.0,0.0,0.0,0.0,0.0,0,99.99,0.0
26116733,1766326458074497,0,0,0.000447,0.000504,1.004514,-0.008133,-0.051682,-0.015289,0.0,0.0,0.0,25.25,0.03,-0.03,180.0,0.0,0.0,0.0,0.0,0,99.99,0.0
26146731,1766326458104495,0,0,2e-05,-4.6e-05,1.004636,0.014755,-0.044052,0.022858,0.0,0.0,0.0,25.25,-0.01,-0.0,180.0,0.0,0.0,0.0,0.0,0,99.99,0.0
26175731,1766326458133495,0,0,-0.000468,0.000504,1.003599,-0.023392,-0.051682,0.015228,0.0,0.0,0.0,25.24,0.03,0.03,180.0,0.0,0.0,0.0,0.0,0,99.99,0.0
26205730,1766326458163494,0,0,-0.000346,0.000992,1.004453,-0.000503,-0.059311,0.007599,0.0,0.0,0.0,25.25,0.05,0.03,180.0,0.0,0.0,0.0,0.0,0,99.99,0.0
26234739,1766326458192503,0,0,2e-05,0.000138,1.003965,-0.000503,-0.044052,0.022858,0.0,0.0,0.0,25.25,-0.0,0.0,180.0,0.0,0.0,0.0,0.0,0,99.99,0.0
26263731,1766326458221495,0,0,0.000264,0.000443,1.003232,0.014755,-0.051682,-0.00766,0.0,0.0,0.0,25.25,0.04,-0.01,180.0,0.0,0.0,0.0,0.0,0,99.99,0.0
26295730,1766326458253494,0,0,-0.000163,0.001236,1.003294,-0.008133,-0.059311,0.015228,0.0,0.0,0.0,25.24,0.08,0.02,180.0,0.0,0.0,0.0,0.0,0,99.99,0.0
26333740,1766326458291504,0,0,-0.000224,0.001236,1.003477,0.014755,-0.021164,-3.1e-05,0.0,0.0,0.0,25.25,0.06,0.01,180.0,0.0,0.0,0.0,0.0,0,99.99,0.0
26360732,1766326458318496,0,0,-4.1e-05,0.001175,1.00311,0.014755,0.024612,-3.1e-05,0.0,0.0,0.0,25.25,0.06,0.01,180.0,0.0,0.0,0.0,0.0,0,99.99,0.0
26388730,1766326458346494,0,0,0.000203,0.000809,1.002866,-0.015762,-0.036423,0.007599,0.0,0.0,0.0,25.25,0.04,-0.0,180.0,0.0,0.0,0.0,0.0,0,99.99,0.0
26420730,1766326458378494,0,0,-0.000224,0.000626,1.004148,-0.000503,-0.021164,0.038116,0.0,0.0,0.0,25.25,0.05,0.02,180.0,0.0,0.0,0.0,0.0,0,99.99,0.0
26447730,1766326458405494,0,0,8.1e-05,0.00026,1.003782,-0.008133,-0.036423,0.045746,0.0,0.0,0.0,25.25,0.02,-0.01,180.0,0.0,0.0,0.0,0.0,0,99.99,0.0
26476730,1766326458434494,0,0,-0.000529,0.000443,1.00311,-0.000503,-0.028793,0.022858,0.0,0.0,0.0,25.26,0.02,0.03,180.0,0.0,0.0,0.0,0.0,0,99.99,0.0
26505731,1766326458463495,0,0,-0.000468,-0.000107,1.002866,-0.000503,-0.005905,0.022858,0.0,0.0,0.0,25.25,-0.02,0.02,180.0,0.0,0.0,0.0,0.0,0,99.99,0.0
26533730,1766326458491494,0,0,-0.000468,0.000443,1.002561,-0.000503,-0.021164,0.015228,0.0,0.0,0.0,25.25,0.02,0.03,180.0,0.0,0.0,0.0,0.0,0,99.99,0.0
26568730,1766326458526494,0,0,-0.000529,0.000382,1.003538,-0.000503,-0.051682,-0.038177,0.0,0.0,0.0,25.26,0.02,0.02,180.0,0.0,0.0,0.0,0.0,0,99.99,0.0
26597730,1766326458555494,0,0,2e-05,0.001114,1.003721,-0.015762,-0.013535,-0.030548,0.0,0.0,0.0,25.25,0.08,-0.0,180.0,0.0,0.0,0.0,0.0,0,99.99,0.0
26625731,1766326458583495,0,0,-0.000651,0.000687,1.003294,-0.008133,-0.021164,-0.038177,0.0,0.0,0.0,25.25,0.04,0.05,180.0,0.0,0.0,0.0,0.0,0,99.99,0.0
26647730,1766326458605494,0,0,-0.000774,1.6e-05,1.002561,-0.000503,-0.021164,-0.030548,0.0,0.0,0.0,25.25,-0.01,0.06,180.0,0.0,0.0,0.0,0.0,0,99.99,0.0
26675730,1766326458633494,0,0,-0.000285,0.000321,1.002561,0.022385,-0.036423,-0.00766,0.0,0.0,0.0,25.25,0.01,-0.0,180.0,0.0,0.0,0.0,0.0,0,99.99,0.0
26704730,1766326458662494,0,0,0.000264,0.000199,1.003843,-0.008133,-0.028793,-0.053436,0.0,0.0,0.0,25.25,0.01,-0.0,180.0,0.0,0.0,0.0,0.0,0,99.99,0.0
26734730,1766326458692494,0,0,-4.1e-05,0.000992,1.004331,-0.023392,-0.059311,-0.038177,0.0,0.0,0.0,25.25,0.05,-0.0,180.0,0.0,0.0,0.0,0.0,0,99.99,0.0
26776732,1766326458734496,0,0,8.1e-05,0.000504,1.003477,-0.023392,-0.021164,0.007599,0.0,0.0,0.0,25.26,0.03,-0.01,180.0,0.0,0.0,0.0,0.0,0,99.99,0.0
26804730,1766326458762494,0,0,2e-05,-4.6e-05,1.002378,-0.023392,-0.059311,-0.022919,0.0,0.0,0.0,25.26,-0.01,0.01,180.0,0.0,0.0,0.0,0.0,0,99.99,0.0
26833734,1766326458791498,0,0,0.000264,-0.000168,1.003965,-0.04628,-0.06694,-0.022919,0.0,0.0,0.0,25.25,-0.02,-0.02,180.0,0.0,0.0,0.0,0.0,0,99.99,0.0
26865980,1766326458823744,0,0,0.000264,0.00087,1.004209,-0.03865,-0.021164,-0.030548,0.0,0.0,0.0,25.25,0.04,-0.01,180.0,0.0,0.0,0.0,0.0,0,99.99,0.0
26891732,1766326458849496,0,0,0.000264,0.00087,1.003965,-0.008133,-0.044052,-0.030548,0.0,0.0,0.0,25.26,0.05,-0.03,180.0,0.0,0.0,0.0,0.0,0,99.99,0.0
26919731,1766326458877495,0,0,2e-05,0.000687,1.003721,-0.03865,0.001724,-0.00766,0.0,0.0,0.0,25.25,0.02,-0.01,180.0,0.0,0.0,0.0,0.0,0,99.99,0.0
26940731,1766326458898495,0,0,-4.1e-05,0.000931,1.002744,-0.03865,0.016983,-0.022919,0.0,0.0,0.0,25.24,0.06,0.0,180.0,0.0,0.0,0.0,0.0,0,99.99,0.0
26968731,1766326458926495,0,0,-0.000651,0.000504,1.003416,-0.053909,0.016983,0.007599,0.0,0.0,0.0,25.25,0.02,0.02,180.0,0.0,0.0,0.0,0.0,0,99.99,0.0
26998730,1766326458956494,0,0,-0.000285,0.000626,1.00311,-0.03865,-0.021164,-3.1e-05,0.0,0.0,0.0,25.25,0.06,0.01,180.0,0.0,0.0,0.0,0.0,0,99.99,0.0
27027731,1766326458985495,0,0,-0.000468,0.000992,1.002378,-0.031021,-0.005905,-0.030548,0.0,0.0,0.0,25.25,0.07,0.03,180.0,0.0,0.0,0.0,0.0,0,99.99,0.0
27056730,1766326459014494,0,0,-0.000713,0.000931,1.003599,0.014755,-0.021164,-0.015289,0.0,0.0,0.0,25.27,0.05,0.05,180.0,0.0,0.0,0.0,0.0,0,99.99,0.0
27086731,1766326459044495,0,0,-0.000407,0.000382,1.003721,-0.000503,-0.044052,0.022858,0.0,0.0,0.0,25.26,0.02,0.01,180.0,0.0,0.0,0.0,0.0,0,99.99,0.0
27112730,1766326459070494,0,0,-0.000529,1.6e-05,1.003232,0.007126,-0.06694,0.022858,0.0,0.0,0.0,25.26,0.0,0.03,180.0,0.0,0.0,0.0,0.0,0,99.99,0.0
27142730,1766326459100494,0,0,0.000264,-0.000107,1.0025,-0.000503,-0.021164,0.015228,0.0,0.0,0.0,25.26,-0.01,-0.01,180.0,0.0,0.0,0.0,0.0,0,99.99,0.0
27171730,1766326459129494,0,0,-4.1e-05,0.00026,1.002683,-0.000503,-0.013535,-0.015289,0.0,0.0,0.0,25.25,0.01,-0.01,180.0,0.0,0.0,0.0,0.0,0,99.99,0.0
27213731,1766326459171495,0,0,-0.000774,0.000199,1.003355,0.007126,0.001724,-3.1e-05,0.0,0.0,0.0,25.26,0.0,0.03,180.0,0.0,0.0,0.0,0.0,0,99.99,0.0
27235731,1766326459193495,0,0,-0.00114,0.000565,1.002683,-0.000503,-0.005905,0.045746,0.0,0.0,0.0,25.26,0.04,0.07,180.0,0.0,0.0,0.0,0.0,0,99.99,0.0
27267730,1766326459225494,0,0,-0.000224,7.7e-05,1.002378,-0.008133,-0.036423,0.022858,0.0,0.0,0.0,25.26,0.02,0.03,180.0,0.0,0.0,0.0,0.0,0,99.99,0.0
27297730,1766326459255494,0,0,-0.000468,0.000382,1.002866,0.030014,-0.028793,-0.00766,0.0,0.0,0.0,25.25,0.02,0.02,180.0,0.0,0.0,0.0,0.0,0,99.99,0.0
27326730,1766326459284494,0,0,-0.000224,0.001297,1.004209,0.007126,-0.028793,0.007599,0.0,0.0,0.0,25.26,0.07,0.02,180.0,0.0,0.0,0.0,0.0,0,99.99,0.0
27355731,1766326459313495,0,0,-0.000163,0.00087,1.003538,-0.008133,0.009354,-0.030548,0.0,0.0,0.0,25.26,0.06,0.0,180.0,0.0,0.0,0.0,0.0,0,99.99,0.0
27383730,1766326459341494,0,0,-0.000285,0.000321,1.003049,-0.008133,0.016983,0.015228,0.0,0.0,0.0,25.26,0.02,0.02,180.0,0.0,0.0,0.0,0.0,0,99.99,0.0
27413730,1766326459371494,0,0,-0.000957,0.000687,1.004026,0.007126,0.001724,-0.030548,0.0,0.0,0.0,25.26,0.05,0.05,180.0,0.0,0.0,0.0,0.0,0,99.99,0.0
27443731,1766326459401495,0,0,-0.000285,0.000565,1.004392,0.022385,0.001724,0.007599,0.0,0.0,0.0,25.25,0.02,0.02,180.0,0.0,0.0,0.0,0.0,0,99.99,0.0
27471730,1766326459429494,0,0,-0.000285,0.000321,1.004087,0.014755,-0.021164,-3.1e-05,0.0,0.0,0.0,25.26,0.04,0.02,180.0,0.0,0.0,0.0,0.0,0,99.99,0.0
27500730,1766326459458494,0,0,-0.000285,0.000138,1.004209,0.007126,0.009354,0.007599,0.0,0.0,0.0,25.26,0.03,0.02,180.0,0.0,0.0,0.0,0.0,0,99.99,0.0
27532731,1766326459490495,0,0,-4.1e-05,-0.000168,1.002683,0.037643,-0.028793,-0.015289,0.0,0.0,0.0,25.26,0.01,-0.01,180.0,0.0,0.0,0.0,0.0,0,99.99,0.0
27559732,1766326459517496,0,0,-0.000468,-0.000473,1.002866,-0.000503,-0.013535,-0.061066,0.0,0.0,0.0,25.26,-0.02,0.03,180.0,0.0,0.0,0.0,0.0,0,99.99,0.0
27588738,1766326459546502,0,0,-0.000774,0.00026,1.003782,0.007126,-0.021164,-0.038177,0.0,0.0,0.0,25.26,0.02,0.03,180.0,0.0,0.0,0.0,0.0,0,99.99,0.0
27617730,1766326459575494,0,0,-0.000896,0.000321,1.003782,0.030014,-0.013535,0.007599,0.0,0.0,0.0,25.26,0.01,0.07,180.0,0.0,0.0,0.0,0.0,0,99.99,0.0
27659731,1766326459617495,0,0,-0.000651,0.000687,1.002622,-0.015762,-0.036423,-0.015289,0.0,0.0,0.0,25.26,0.04,0.03,180.0,0.0,0.0,0.0,0.0,0,99.99,0.0
27689730,1766326459647494,0,0,-0.000651,0.000565,1.003171,-0.023392,-0.013535,0.030487,0.0,0.0,0.0,25.25,0.02,0.04,180.0,0.0,0.0,0.0,0.0,0,99.99,0.0
27718732,1766326459676496,0,0,-0.000407,0.000321,1.003232,0.007126,-0.013535,0.045746,0.0,0.0,0.0,25.26,0.0,0.02,180.0,0.0,0.0,0.0,0.0,0,99.99,0.0
27750730,1766326459708494,0,0,-0.000285,0.000565,1.002744,-0.000503,-0.028793,-0.00766,0.0,0.0,0.0,25.26,0.03,0.01,180.0,0.0,0.0,0.0,0.0,0,99.99,0.0
27776730,1766326459734494,0,0,-4.1e-05,0.000504,1.003538,-0.015762,-0.013535,-0.00766,0.0,0.0,0.0,25.26,0.01,-0.01,180.0,0.0,0.0,0.0,0.0,0,99.99,0.0
27804731,1766326459762495,0,0,-4.1e-05,0.000809,1.002256,-0.023392,-0.021164,0.007599,0.0,0.0,0.0,25.26,0.05,0.02,180.0,0.0,0.0,0.0,0.0,0,99.99,0.0
27832730,1766326459790494,0,0,-0.000468,0.000565,1.002927,-0.031021,-0.005905,0.030487,0.0,0.0,0.0,25.26,0.02,0.01,180.0,0.0,0.0,0.0,0.0,0,99.99,0.0
27863731,1766326459821495,0,0,-0.000285,0.000626,1.003538,0.007126,-0.013535,0.030487,0.0,0.0,0.0,25.26,0.02,0.01,180.0,0.0,0.0,0.0,0.0,0,99.99,0.0
27891730,1766326459849494,0,0,-0.00114,0.000748,1.003171,-0.000503,-0.036423,-3.1e-05,0.0,0.0,0.0,25.25,0.03,0.05,180.0,0.0,0.0,0.0,0.0,0,99.99,0.0
27919731,1766326459877495,0,0,-0.000407,0.000748,1.003049,0.060532,-0.021164,-0.00766,0.0,0.0,0.0,25.25,0.04,0.03,180.0,0.0,0.0,0.0,0.0,0,99.99,0.0
27948733,1766326459906497,0,0,-0.000163,0.000687,1.002988,0.022385,-0.013535,0.007599,0.0,0.0,0.0,25.25,0.05,0.01,180.0,0.0,0.0,0.0,0.0,0,99.99,0.0
27967732,1766326459925496,0,0,-0.000835,0.000199,1.003232,-0.031021,-0.036423,-0.00766,0.0,0.0,0.0,25.25,0.01,0.05,180.0,0.0,0.0,0.0,0.0,0,99.99,0.0
27997730,1766326459955494,0,0,0.000386,1.6e-05,1.003721,-0.015762,-0.036423,0.030487,0.0,0.0,0.0,25.25,0.0,-0.01,180.0,0.0,0.0,0.0,0.0,0,99.99,0.0
28026734,1766326459984498,0,0,0.000142,-0.000229,1.003355,-0.023392,-0.036423,0.045746,0.0,0.0,0.0,25.26,-0.01,-0.01,180.0,0.0,0.0,0.0,0.0,0,99.99,0.0
28055740,1766326460013504,0,0,0.000264,-4.6e-05,1.0025,-0.000503,-0.059311,0.030487,0.0,0.0,0.0,25.26,-0.01,-0.01,180.0,0.0,0.0,0.0,0.0,0,99.99,0.0
28085731,1766326460043495,0,0,-4.1e-05,7.7e-05,1.004758,-0.000503,-0.044052,0.038116,0.0,0.0,0.0,25.26,0.0,-0.01,180.0,0.0,0.0,0.0,0.0,0,99.99,0.0
28124737,1766326460082501,0,0,-0.000651,1.6e-05,1.004087,0.014755,0.001724,0.053375,0.0,0.0,0.0,25.26,0.0,0.04,180.0,0.0,0.0,0.0,0.0,0,99.99,0.0
28153730,1766326460111494,0,0,0.000386,0.000748,1.003599,0.007126,-0.051682,0.007599,0.0,0.0,0.0,25.26,0.06,-0.01,180.0,0.0,0.0,0.0,0.0,0,99.99,0.0
28183730,1766326460141494,0,0,-0.000285,0.000748,1.002805,0.022385,-0.021164,-0.022919,0.0,0.0,0.0,25.26,0.04,0.03,180.0,0.0,0.0,0.0,0.0,0,99.99,0.0
28212980,1766326460170744,0,0,-0.000774,0.000748,1.004453,0.030014,-0.021164,-0.00766,0.0,0.0,0.0,25.26,0.05,0.05,180.0,0.0,0.0,0.0,0.0,0,99.99,0.0
28241733,1766326460199497,0,0,-0.000774,0.001236,1.003416,0.014755,-0.044052,0.030487,0.0,0.0,0.0,25.26,0.06,0.05,180.0,0.0,0.0,0.0,0.0,0,99.99,0.0
28256738,1766326460214502,0,0,-0.000407,0.00087,1.002683,-0.000503,-0.06694,0.022858,0.0,0.0,0.0,25.26,0.06,0.02,180.0,0.0,0.0,0.0,0.0,0,99.99,0.0
28285731,1766326460243495,0,0,2e-05,0.00026,1.00311,-0.000503,-0.021164,-0.015289,0.0,0.0,0.0,25.27,0.02,-0.0,180.0,0.0,0.0,0.0,0.0,0,99.99,0.0
28317730,1766326460275494,0,0,-0.000407,0.000138,1.003538,-0.023392,0.001724,-0.030548,0.0,0.0,0.0,25.25,-0.0,0.02,180.0,0.0,0.0,0.0,0.0,0,99.99,0.0
28343730,1766326460301494,0,0,-0.000285,0.000321,1.002744,-0.000503,0.001724,-0.030548,0.0,0.0,0.0,25.26,0.0,0.01,180.0,0.0,0.0,0.0,0.0,0,99.99,0.0
28372734,1766326460330498,0,0,-0.000407,0.000321,1.002927,-0.000503,-0.013535,-0.022919,0.0,0.0,0.0,25.26,0.02,0.02,180.0,0.0,0.0,0.0,0.0,0,99.99,0.0
28400733,1766326460358497,0,0,0.000264,0.000626,1.004087,0.007126,-0.036423,0.038116,0.0,0.0,0.0,25.26,0.03,-0.02,180.0,0.0,0.0,0.0,0.0,0,99.99,0.0
28429734,1766326460387498,0,0,-4.1e-05,0.000931,1.0025,0.014755,-0.028793,0.030487,0.0,0.0,0.0,25.26,0.08,-0.0,180.0,0.0,0.0,0.0,0.0,0,99.99,0.0
28459731,1766326460417495,0,0,0.000447,0.001175,1.004026,0.022385,-0.013535,0.022858,0.0,0.0,0.0,25.26,0.08,-0.04,180.0,0.0,0.0,0.0,0.0,0,99.99,0.0
28487731,1766326460445495,0,0,0.000386,0.000931,1.003904,0.014755,0.009354,0.007599,0.0,0.0,0.0,25.27,0.04,-0.04,180.0,0.0,0.0,0.0,0.0,0,99.99,0.0
28516730,1766326460474494,0,0,-0.000102,0.000687,1.004209,-0.008133,-0.005905,-0.015289,0.0,0.0,0.0,25.26,0.02,0.01,180.0,0.0,0.0,0.0,0.0,0,99.99,0.0
28560739,1766326460518503,0,0,-0.000285,0.001541,1.003599,0.014755,-0.013535,-0.015289,0.0,0.0,0.0,25.26,0.08,0.01,180.0,0.0,0.0,0.0,0.0,0,99.99,0.0
28590730,1766326460548494,0,0,-0.000346,0.001053,1.003904,0.022385,-0.028793,-0.00766,0.0,0.0,0.0,25.25,0.06,0.01,180.0,0.0,0.0,0.0,0.0,0,99.99,0.0
28618730,1766326460576494,0,0,0.000203,0.000504,1.004087,0.007126,-0.028793,-0.00766,0.0,0.0,0.0,25.26,0.02,-0.02,180.0,0.0,0.0,0.0,0.0,0,99.99,0.0
28654732,1766326460612496,0,0,-0.000346,0.001053,1.002866,-0.023392,-0.036423,0.022858,0.0,0.0,0.0,25.26,0.05,0.02,180.0,0.0,0.0,0.0,0.0,0,99.99,0.0
28683737,1766326460641501,0,0,-0.000468,0.000931,1.002927,-0.000503,-0.028793,0.022858,0.0,0.0,0.0,25.26,0.04,0.02,180.0,0.0,0.0,0.0,0.0,0,99.99,0.0
28704731,1766326460662495,0,0,-0.000651,0.001053,1.003599,-0.008133,-0.028793,-0.00766,0.0,0.0,0.0,25.27,0.07,0.05,180.0,0.0,0.0,0.0,0.0,0,99.99,0.0
28733730,1766326460691494,0,0,2e-05,0.000199,1.003599,0.014755,0.001724,-0.022919,0.0,0.0,0.0,25.27,-0.01,0.01,180.0,0.0,0.0,0.0,0.0,0,99.99,0.0
28765732,1766326460723496,0,0,-0.000651,0.00026,1.002927,0.007126,-0.036423,-0.038177,0.0,0.0,0.0,25.26,0.03,0.03,180.0,0.0,0.0,0.0,0.0,0,99.99,0.0
28791731,1766326460749495,0,0,-0.000896,0.00026,1.002439,-0.000503,-0.021164,0.015228,0.0,0.0,0.0,25.25,0.02,0.06,180.0,0.0,0.0,0.0,0.0,0,99.99,0.0
28820740,1766326460778504,0,0,-0.000957,0.000321,1.003171,-0.03865,-0.036423,0.030487,0.0,0.0,0.0,25.25,0.03,0.06,180.0,0.0,0.0,0.0,0.0,0,99.99,0.0
28848731,1766326460806495,0,0,-0.000896,-4.6e-05,1.004697,-0.008133,-0.044052,-3.1e-05,0.0,0.0,0.0,25.26,-0.0,0.05,180.0,0.0,0.0,0.0,0.0,0,99.99,0.0
28878730,1766326460836494,0,0,-0.000224,0.000687,1.003477,-0.015762,-0.044052,-0.022919,0.0,0.0,0.0,25.26,0.03,0.02,180.0,0.0,0.0,0.0,0.0,0,99.99,0.0
28925731,1766326460883495,0,0,-0.000529,0.001236,1.003721,0.007126,-0.021164,-0.015289,0.0,0.0,0.0,25.26,0.06,0.03,180.0,0.0,0.0,0.0,0.0,0,99.99,0.0
28955731,1766326460913495,0,0,-0.000407,0.001053,1.003965,-0.000503,-0.028793,-0.030548,0.0,0.0,0.0,25.26,0.06,0.02,180.0,0.0,0.0,0.0,0.0,0,99.99,0.0
28984731,1766326460942495,0,0,-0.00059,0.000931,1.003904,-0.008133,-0.036423,-0.015289,0.0,0.0,0.0,25.27,0.06,0.03,180.0,0.0,0.0,0.0,0.0,0,99.99,0.0
29027730,1766326460985494,0,0,-0.000529,0.000748,1.003477,0.030014,-0.06694,-3.1e-05,0.0,0.0,0.0,25.27,0.06,0.02,180.0,0.0,0.0,0.0,0.0,0,99.99,0.0
29056731,1766326461014495,0,0,-0.000163,0.000199,1.003232,0.007126,-0.036423,-3.1e-05,0.0,0.0,0.0,25.26,0.01,0.0,180.0,0.0,0.0,0.0,0.0,0,99.99,0.0
29084739,1766326461042503,0,0,-0.00059,0.000138,1.004636,-0.015762,-0.051682,0.007599,0.0,0.0,0.0,25.26,-0.01,0.03,180.0,0.0,0.0,0.0,0.0,0,99.99,0.0
29114732,1766326461072496,0,0,-0.000163,0.000992,1.004087,-0.000503,-0.028793,0.007599,0.0,0.0,0.0,25.26,0.06,-0.01,180.0,0.0,0.0,0.0,0.0,0,99.99,0.0
29143731,1766326461101495,0,0,-0.000468,0.000809,1.002927,-0.015762,-0.021164,-0.00766,0.0,0.0,0.0,25.25,0.05,0.03,180.0,0.0,0.0,0.0,0.0,0,99.99,0.0
29173731,1766326461131495,0,0,-0.000957,0.000565,1.002744,-0.015762,-0.028793,0.022858,0.0,0.0,0.0,25.26,0.03,0.05,180.0,0.0,0.0,0.0,0.0,0,99.99,0.0
29201730,1766326461159494,0,0,-0.000774,0.001053,1.003171,0.007126,-0.021164,-3.1e-05,0.0,0.0,0.0,25.26,0.06,0.05,180.0,0.0,0.0,0.0,0.0,0,99.99,0.0
29232731,1766326461190495,0,0,-0.000774,0.001175,1.003904,0.007126,-0.051682,-0.00766,0.0,0.0,0.0,25.26,0.07,0.05,180.0,0.0,0.0,0.0,0.0,0,99.99,0.0
29262731,1766326461220495,0,0,-0.000407,0.000809,1.002683,0.037643,-0.044052,-0.038177,0.0,0.0,0.0,25.26,0.04,0.01,180.0,0.0,0.0,0.0,0.0,0,99.99,0.0
29292734,1766326461250498,0,0,-0.000285,0.000931,1.002988,0.022385,-0.044052,-3.1e-05,0.0,0.0,0.0,25.26,0.07,0.02,180.0,0.0,0.0,0.0,0.0,0,99.99,0.0
29324730,1766326461282494,0,0,-0.000529,0.001236,1.002866,-0.023392,-0.028793,0.022858,0.0,0.0,0.0,25.27,0.06,0.03,180.0,0.0,0.0,0.0,0.0,0,99.99,0.0
29355731,1766326461313495,0,0,-0.000224,0.000565,1.004209,-0.031021,-0.036423,0.053375,0.0,0.0,0.0,25.27,0.03,0.02,180.0,0.0,0.0,0.0,0.0,0,99.99,0.0
29388980,1766326461346744,0,0,-0.000163,0.000138,1.004087,-0.015762,-0.036423,0.061005,0.0,0.0,0.0,25.26,0.01,0.01,180.0,0.0,0.0,0.0,0.0,0,99.99,0.0
29418730,1766326461376494,0,0,-0.000713,0.000931,1.003049,-0.015762,-0.021164,-0.00766,0.0,0.0,0.0,25.26,0.07,0.04,180.0,0.0,0.0,0.0,0.0,0,99.99,0.0
29457730,1766326461415494,0,0,-0.000713,0.001053,1.003965,0.014755,-0.044052,-0.030548,0.0,0.0,0.0,25.27,0.06,0.04,180.0,0.0,0.0,0.0,0.0,0,99.99,0.0
29485738,1766326461443502,0,0,-0.00114,0.000992,1.004453,-0.03865,-0.005905,-0.00766,0.0,0.0,0.0,25.26,0.05,0.07,180.0,0.0,0.0,0.0,0.0,0,99.99,0.0
29516731,1766326461474495,0,0,-0.001506,0.000504,1.00311,0.007126,-0.028793,-3.1e-05,0.0,0.0,0.0,25.27,0.03,0.09,180.0,0.0,0.0,0.0,0.0,0,99.99,0.0
29545730,1766326461503494,0,0,-0.001323,0.000565,1.002622,-0.023392,0.009354,0.038116,0.0,0.0,0.0,25.25,0.04,0.09,180.0,0.0,0.0,0.0,0.0,0,99.99,0.0
29575731,1766326461533495,0,0,-0.000651,-4.6e-05,1.003416,-0.015762,-0.036423,0.030487,0.0,0.0,0.0,25.25,-0.01,0.04,180.0,0.0,0.0,0.0,0.0,0,99.99,0.0
29603732,1766326461561496,0,0,-0.000713,0.000199,1.003294,-0.015762,-0.028793,-3.1e-05,0.0,0.0,0.0,25.27,0.03,0.05,180.0,0.0,0.0,0.0,0.0,0,99.99,0.0
29634732,1766326461592496,0,0,-0.000285,0.000199,1.003599,-0.008133,-0.051682,0.007599,0.0,0.0,0.0,25.27,-0.01,0.03,180.0,0.0,0.0,0.0,0.0,0,99.99,0.0
29665730,1766326461623494,0,0,0.000264,0.000382,1.003294,-0.008133,-0.021164,-0.015289,0.0,0.0,0.0,25.27,0.02,-0.04,180.0,0.0,0.0,0.0,0.0,0,99.99,0.0
29692731,1766326461650495,0,0,-0.000102,0.001114,1.003599,0.007126,-0.021164,-3.1e-05,0.0,0.0,0.0,25.26,0.07,-0.0,180.0,0.0,0.0,0.0,0.0,0,99.99,0.0
29721731,1766326461679495,0,0,-0.001201,0.000138,1.003477,0.007126,0.001724,0.045746,0.0,0.0,0.0,25.26,0.01,0.06,180.0,0.0,0.0,0.0,0.0,0,99.99,0.0
29749732,1766326461707496,0,0,-0.000713,0.000443,1.002622,-0.000503,-0.036423,0.022858,0.0,0.0,0.0,25.26,0.01,0.05,180.0,0.0,0.0,0.0,0.0,0,99.99,0.0
29780730,1766326461738494,0,0,-0.000651,0.000321,1.002195,0.007126,-0.005905,-3.1e-05,0.0,0.0,0.0,25.26,0.02,0.04,180.0,0.0,0.0,0.0,0.0,0,99.99,0.0
29809730,1766326461767494,0,0,-0.000407,-0.000107,1.002683,-0.023392,-0.059311,0.045746,0.0,0.0,0.0,25.26,-0.01,0.01,180.0,0.0,0.0,0.0,0.0,0,99.99,0.0
29838730,1766326461796494,0,0,-0.000651,0.000626,1.002317,-0.031021,-0.044052,0.007599,0.0,0.0,0.0,25.27,0.04,0.04,180.0,0.0,0.0,0.0,0.0,0,99.99,0.0
29866730,1766326461824494,0,0,-0.000957,0.00026,1.002866,-0.008133,-0.051682,-0.015289,0.0,0.0,0.0,25.27,0.01,0.05,180.0,0.0,0.0,0.0,0.0,0,99.99,0.0
29911730,1766326461869494,0,0,-0.000774,-0.000107,1.003538,-0.023392,-0.051682,-3.1e-05,0.0,0.0,0.0,25.27,-0.0,0.05,180.0,0.0,0.0,0.0,0.0,0,99.99,0.0
29939738,1766326461897502,0,0,-0.000529,0.000565,1.002195,-0.000503,0.009354,-3.1e-05,0.0,0.0,0.0,25.27,0.03,0.02,180.0,0.0,0.0,0.0,0.0,0,99.99,0.0
29967730,1766326461925494,0,0,-0.000713,0.000687,1.003538,-0.008133,0.032242,0.022858,0.0,0.0,0.0,25.27,0.04,0.03,180.0,0.0,0.0,0.0,0.0,0,99.99,0.0
29996731,1766326461954495,0,0,-0.000774,0.000687,1.003049,-0.015762,-0.013535,0.015228,0.0,0.0,0.0,25.27,0.05,0.04,180.0,0.0,0.0,0.0,0.0,0,99.99,0.0
30024734,1766326461982498,0,0,-0.000713,0.001419,1.002195,-0.023392,-0.021164,-3.1e-05,0.0,0.0,0.0,25.27,0.1,0.05,180.0,0.0,0.0,0.0,0.0,0,99.99,0.0
30052730,1766326462010494,0,0,-0.000835,0.000992,1.002073,-0.008133,-0.005905,0.007599,0.0,0.0,0.0,25.27,0.05,0.05,180.0,0.0,0.0,0.0,0.0,0,99.99,0.0
30083731,1766326462041495,0,0,-0.000896,0.001236,1.00311,-0.015762,0.001724,0.053375,0.0,0.0,0.0,25.27,0.08,0.05,180.0,0.0,0.0,0.0,0.0,0,99.99,0.0
30113733,1766326462071497,0,0,-0.000896,0.001053,1.003843,-0.000503,0.016983,0.007599,0.0,0.0,0.0,25.28,0.06,0.04,180.0,0.0,0.0,0.0,0.0,0,99.99,0.0
30148731,1766326462106495,0,0,-0.000224,0.000504,1.003965,0.007126,0.001724,-0.022919,0.0,0.0,0.0,25.27,0.02,0.01,180.0,0.0,0.0,0.0,0.0,0,99.99,0.0
30192731,1766326462150495,0,0,2e-05,0.001114,1.001951,0.030014,-0.013535,-0.00766,0.0,0.0,0.0,25.27,0.08,-0.02,180.0,0.0,0.0,0.0,0.0,0,99.99,0.0
30225731,1766326462183495,0,0,2e-05,0.000748,1.002988,0.014755,-0.013535,-3.1e-05,0.0,0.0,0.0,25.27,0.04,0.02,180.0,0.0,0.0,0.0,0.0,0,99.99,0.0
30252734,1766326462210498,0,0,-0.000102,0.000687,1.003965,-0.000503,-0.021164,-0.00766,0.0,0.0,0.0,25.27,0.02,0.0,180.0,0.0,0.0,0.0,0.0,0,99.99,0.0
30282730,1766326462240494,0,0,-0.000163,0.000626,1.002683,-0.008133,-0.044052,-0.015289,0.0,0.0,0.0,25.27,0.02,0.0,180.0,0.0,0.0,0.0,0.0,0,99.99,0.0
30311730,1766326462269494,0,0,-0.000285,0.00087,1.002805,-0.031021,-0.021164,-3.1e-05,0.0,0.0,0.0,25.27,0.04,0.0,180.0,0.0,0.0,0.0,0.0,0,99.99,0.0
30353731,1766326462311495,0,0,-0.000102,0.000565,1.003782,0.007126,-0.036423,0.030487,0.0,0.0,0.0,25.27,0.03,0.01,180.0,0.0,0.0,0.0,0.0,0,99.99,0.0
30381730,1766326462339494,0,0,-0.00059,0.000504,1.003171,0.030014,-0.005905,0.061005,0.0,0.0,0.0,25.27,0.03,0.04,180.0,0.0,0.0,0.0,0.0,0,99.99,0.0
30410730,1766326462368494,0,0,-4.1e-05,0.000931,1.002744,0.030014,-0.036423,0.045746,0.0,0.0,0.0,25.27,0.06,-0.01,180.0,0.0,0.0,0.0,0.0,0,99.99,0.0
30439730,1766326462397494,0,0,-0.000224,0.000321,1.002805,-0.015762,-0.013535,-0.053436,0.0,0.0,0.0,25.27,0.01,0.02,180.0,0.0,0.0,0.0,0.0,0,99.99,0.0
30469731,1766326462427495,0,0,-0.000285,0.000382,1.003599,0.014755,-0.021164,0.022858,0.0,0.0,0.0,25.27,0.02,0.02,180.0,0.0,0.0,0.0,0.0,0,99.99,0.0
30497730,1766326462455494,0,0,-0.000529,1.6e-05,1.002195,-0.000503,-0.028793,-0.00766,0.0,0.0,0.0,25.28,-0.01,0.03,180.0,0.0,0.0,0.0,0.0,0,99.99,0.0
30526731,1766326462484495,0,0,-0.000468,0.000504,1.002256,-0.015762,-0.036423,-0.00766,0.0,0.0,0.0,25.28,0.03,0.01,180.0,0.0,0.0,0.0,0.0,0,99.99,0.0
30555731,1766326462513495,0,0,0.000142,0.000138,1.003477,-0.031021,-0.059311,-0.00766,0.0,0.0,0.0,25.27,-0.01,-0.02,180.0,0.0,0.0,0.0,0.0,0,99.99,0.0
30583731,1766326462541495,0,0,-0.000468,-0.000229,1.00427,-0.008133,-0.051682,-0.00766,0.0,0.0,0.0,25.27,-0.02,0.03,180.0,0.0,0.0,0.0,0.0,0,99.99,0.0
30609731,1766326462567495,0,0,-0.000346,0.000382,1.004575,0.014755,-0.028793,-0.015289,0.0,0.0,0.0,25.28,0.04,0.01,180.0,0.0,0.0,0.0,0.0,0,99.99,0.0
30636731,1766326462594495,0,0,-0.000346,0.000809,1.003721,-0.008133,-0.059311,-0.030548,0.0,0.0,0.0,25.27,0.06,0.04,180.0,0.0,0.0,0.0,0.0,0,99.99,0.0
30665730,1766326462623494,0,0,-0.000468,0.00087,1.003232,-0.03865,-0.036423,0.007599,0.0,0.0,0.0,25.27,0.05,0.04,180.0,0.0,0.0,0.0,0.0,0,99.99,0.0
30694730,1766326462652494,0,0,-0.000163,0.00026,1.004026,-0.031021,-0.044052,0.061005,0.0,0.0,0.0,25.27,0.02,0.01,180.0,0.0,0.0,0.0,0.0,0,99.99,0.0
30722732,1766326462680496,0,0,-0.000529,0.001114,1.002805,-0.03865,-0.051682,0.038116,0.0,0.0,0.0,25.27,0.08,0.02,180.0,0.0,0.0,0.0,0.0,0,99.99,0.0
30754730,1766326462712494,0,0,-0.000407,0.000321,1.003477,-0.015762,-0.028793,0.030487,0.0,0.0,0.0,25.27,0.02,0.04,180.0,0.0,0.0,0.0,0.0,0,99.99,0.0
30797731,1766326462755495,0,0,0.000386,0.000138,1.002622,-0.023392,-0.036423,-3.1e-05,0.0,0.0,0.0,25.26,0.01,-0.03,180.0,0.0,0.0,0.0,0.0,0,99.99,0.0
30827731,1766326462785495,0,0,-0.000346,0.000199,1.002988,0.014755,-0.005905,-0.015289,0.0,0.0,0.0,25.27,0.03,0.02,180.0,0.0,0.0,0.0,0.0,0,99.99,0.0
30855731,1766326462813495,0,0,0.000142,0.000992,1.003294,-0.000503,-0.028793,-0.030548,0.0,0.0,0.0,25.27,0.05,-0.0,180.0,0.0,0.0,0.0,0.0,0,99.99,0.0
30884730,1766326462842494,0,0,-0.000529,0.00087,1.003355,-0.015762,-0.021164,0.022858,0.0,0.0,0.0,25.27,0.05,0.05,180.0,0.0,0.0,0.0,0.0,0,99.99,0.0
30913731,1766326462871495,0,0,-0.000102,0.000565,1.003477,-0.000503,0.016983,-0.015289,0.0,0.0,0.0,25.27,0.04,-0.0,180.0,0.0,0.0,0.0,0.0,0,99.99,0.0
30942730,1766326462900494,0,0,-0.000102,0.000809,1.002622,-0.008133,0.001724,-0.038177,0.0,0.0,0.0,25.27,0.05,-0.01,180.0,0.0,0.0,0.0,0.0,0,99.99,0.0
30971730,1766326462929494,0,0,8.1e-05,0.000382,1.003355,-0.023392,0.001724,0.022858,0.0,0.0,0.0,25.27,0.02,-0.01,180.0,0.0,0.0,0.0,0.0,0,99.99,0.0
31000734,1766326462958498,0,0,2e-05,0.000443,1.004636,-0.015762,-0.005905,0.053375,0.0,0.0,0.0,25.27,0.03,-0.0,180.0,0.0,0.0,0.0,0.0,0,99.99,0.0
31030731,1766326462988495,0,0,-4.1e-05,0.000199,1.004514,-0.04628,0.001724,0.015228,0.0,0.0,0.0,25.27,0.02,-0.0,180.0,0.0,0.0,0.0,0.0,0,99.99,0.0
31059730,1766326463017494,0,0,0.000142,0.000931,1.004087,-0.04628,-0.059311,-0.030548,0.0,0.0,0.0,25.27,0.06,-0.01,180.0,0.0,0.0,0.0,0.0,0,99.99,0.0
31087731,1766326463045495,0,0,-0.00059,0.001114,1.003843,-0.031021,-0.044052,0.038116,0.0,0.0,0.0,25.28,0.06,0.04,180.0,0.0,0.0,0.0,0.0,0,99.99,0.0
31115731,1766326463073495,0,0,-0.000896,0.000931,1.003904,-0.03865,-0.059311,0.022858,0.0,0.0,0.0,25.28,0.07,0.04,180.0,0.0,0.0,0.0,0.0,0,99.99,0.0
31144730,1766326463102494,0,0,-0.000713,0.000199,1.002622,-0.04628,-0.036423,0.015228,0.0,0.0,0.0,25.27,-0.01,0.03,180.0,0.0,0.0,0.0,0.0,0,99.99,0.0
31174730,1766326463132494,0,0,-0.000346,0.000443,1.0025,-0.031021,-0.036423,0.038116,0.0,0.0,0.0,25.26,0.02,0.01,180.0,0.0,0.0,0.0,0.0,0,99.99,0.0
31216731,1766326463174495,0,0,-0.000651,0.000809,1.004392,-0.015762,-0.021164,0.022858,0.0,0.0,0.0,25.27,0.05,0.05,180.0,0.0,0.0,0.0,0.0,0,99.99,0.0
31245730,1766326463203494,0,0,0.000264,0.000626,1.00311,0.014755,-0.005905,-0.015289,0.0,0.0,0.0,25.28,0.03,-0.02,180.0,0.0,0.0,0.0,0.0,0,99.99,0.0
31274980,1766326463232744,0,0,-0.000774,-0.000351,1.003294,0.007126,-0.028793,-0.045807,0.0,0.0,0.0,25.28,-0.03,0.04,180.0,0.0,0.0,0.0,0.0,0,99.99,0.0
31307732,1766326463265496,0,0,2e-05,-0.000168,1.00311,-0.015762,-0.059311,-0.015289,0.0,0.0,0.0,25.28,-0.01,-0.0,180.0,0.0,0.0,0.0,0.0,0,99.99,0.0
31336733,1766326463294497,0,0,0.000325,0.000199,1.00311,-0.03865,-0.036423,-3.1e-05,0.0,0.0,0.0,25.28,0.01,-0.02,180.0,0.0,0.0,0.0,0.0,0,99.99,0.0
31365730,1766326463323494,0,0,-0.000468,0.000382,1.003294,-0.008133,-0.044052,-0.015289,0.0,0.0,0.0,25.27,0.03,0.02,180.0,0.0,0.0,0.0,0.0,0,99.99,0.0
31393730,1766326463351494,0,0,2e-05,0.00026,1.004209,0.014755,-0.036423,0.015228,0.0,0.0,0.0,25.27,0.02,0.01,180.0,0.0,0.0,0.0,0.0,0,99.99,0.0
31423730,1766326463381494,0,0,-0.000774,0.000931,1.003171,-0.015762,-0.021164,0.022858,0.0,0.0,0.0,25.28,0.04,0.03,180.0,0.0,0.0,0.0,0.0,0,99.99,0.0
31452730,1766326463410494,0,0,-0.000529,0.000992,1.003538,0.014755,-0.051682,-3.1e-05,0.0,0.0,0.0,25.28,0.04,0.04,180.0,0.0,0.0,0.0,0.0,0,99.99,0.0
31486732,1766326463444496,0,0,-0.00059,0.001297,1.003049,-0.008133,-0.028793,0.038116,0.0,0.0,0.0,25.28,0.08,0.02,180.0,0.0,0.0,0.0,0.0,0,99.99,0.0
31516730,1766326463474494,0,0,-0.000651,0.000992,1.003477,-0.023392,-0.021164,0.015228,0.0,0.0,0.0,25.28,0.05,0.05,180.0,0.0,0.0,0.0,0.0,0,99.99,0.0
31546730,1766326463504494,0,0,-0.00114,0.001175,1.002805,-0.031021,-0.051682,0.007599,0.0,0.0,0.0,25.28,0.08,0.07,180.0,0.0,0.0,0.0,0.0,0,99.99,0.0
31576731,1766326463534495,0,0,-0.000835,0.000504,1.002988,-0.008133,-0.036423,0.022858,0.0,0.0,0.0,25.28,0.03,0.05,180.0,0.0,0.0,0.0,0.0,0,99.99,0.0
31604730,1766326463562494,0,0,-0.001201,0.000992,1.003843,-0.023392,-0.013535,-3.1e-05,0.0,0.0,0.0,25.28,0.06,0.07,180.0,0.0,0.0,0.0,0.0,0,99.99,0.0
31644731,1766326463602495,0,0,-0.000529,0.000626,1.002561,-0.000503,-0.005905,-3.1e-05,0.0,0.0,0.0,25.27,0.04,0.04,180.0,0.0,0.0,0.0,0.0,0,99.99,0.0
31673730,1766326463631494,0,0,-0.000285,0.001175,1.003355,0.014755,-0.051682,-3.1e-05,0.0,0.0,0.0,25.27,0.08,0.02,180.0,0.0,0.0,0.0,0.0,0,99.99,0.0
31702730,1766326463660494,0,0,-0.000651,0.000626,1.00311,-0.000503,-0.013535,0.015228,0.0,0.0,0.0,25.27,0.05,0.03,180.0,0.0,0.0,0.0,0.0,0,99.99,0.0
31731730,1766326463689494,0,0,-0.000163,0.000626,1.003782,0.007126,-0.013535,0.007599,0.0,0.0,0.0,25.28,0.04,-0.01,180.0,0.0,0.0,0.0,0.0,0,99.99,0.0
31760730,1766326463718494,0,0,0.000264,0.00087,1.003721,0.022385,-0.005905,0.038116,0.0,0.0,0.0,25.28,0.04,-0.01,180.0,0.0,0.0,0.0,0.0,0,99.99,0.0
31790731,1766326463748495,0,0,-4.1e-05,0.000565,1.003171,0.014755,-0.013535,-0.00766,0.0,0.0,0.0,25.28,0.05,-0.0,180.0,0.0,0.0,0.0,0.0,0,99.99,0.0
31819730,1766326463777494,0,0,-0.000224,0.000748,1.003477,-0.015762,-0.044052,-3.1e-05,0.0,0.0,0.0,25.28,0.05,-0.0,180.0,0.0,0.0,0.0,0.0,0,99.99,0.0
31851731,1766326463809495,0,0,-4.1e-05,0.001602,1.003538,-0.015762,-0.044052,-0.015289,0.0,0.0,0.0,25.28,0.09,0.0,180.0,0.0,0.0,0.0,0.0,0,99.99,0.0
31877730,1766326463835494,0,0,-0.000651,0.000626,1.002561,0.007126,-0.028793,-0.022919,0.0,0.0,0.0,25.28,0.04,0.03,180.0,0.0,0.0,0.0,0.0,0,99.99,0.0
31905730,1766326463863494,0,0,-0.000407,0.000443,1.002256,-0.023392,-0.013535,-0.045807,0.0,0.0,0.0,25.28,0.03,0.01,180.0,0.0,0.0,0.0,0.0,0,99.99,0.0
31935731,1766326463893495,0,0,-0.000468,0.000748,1.003171,-0.023392,-0.028793,-3.1e-05,0.0,0.0,0.0,25.29,0.05,0.03,180.0,0.0,0.0,0.0,0.0,0,99.99,0.0
31964731,1766326463922495,0,0,-0.000835,0.00087,1.003782,-0.000503,-0.028793,0.045746,0.0,0.0,0.0,25.28,0.05,0.05,180.0,0.0,0.0,0.0,0.0,0,99.99,0.0
31993730,1766326463951494,0,0,-0.001506,0.000565,1.003782,-0.008133,-0.036423,0.007599,0.0,0.0,0.0,25.28,0.03,0.09,180.0,0.0,0.0,0.0,0.0,0,99.99,0.0
32021731,1766326463979495,0,0,-0.000896,0.000748,1.004331,0.022385,-0.005905,0.030487,0.0,0.0,0.0,25.28,0.05,0.04,180.0,0.0,0.0,0.0,0.0,0,99.99,0.0
32051730,1766326464009494,0,0,-0.000651,0.001114,1.004636,0.007126,-0.005905,0.053375,0.0,0.0,0.0,25.28,0.05,0.04,180.0,0.0,0.0,0.0,0.0,0,99.99,0.0
32094730,1766326464052494,0,0,-0.000896,0.001236,1.004148,-0.023392,0.001724,-0.00766,0.0,0.0,0.0,25.27,0.07,0.07,180.0,0.0,0.0,0.0,0.0,0,99.99,0.0
32123730,1766326464081494,0,0,-0.000774,0.001114,1.004087,-0.015762,-0.013535,0.022858,0.0,0.0,0.0,25.28,0.06,0.03,180.0,0.0,0.0,0.0,0.0,0,99.99,0.0
32151730,1766326464109494,0,0,-0.000102,0.000443,1.00311,0.007126,-0.036423,0.022858,0.0,0.0,0.0,25.28,0.02,0.02,180.0,0.0,0.0,0.0,0.0,0,99.99,0.0
32185730,1766326464143494,0,0,0.000142,0.000443,1.003355,-0.000503,-0.028793,0.038116,0.0,0.0,0.0,25.28,0.02,-0.01,180.0,0.0,0.0,0.0,0.0,0,99.99,0.0
32213730,1766326464171494,0,0,-0.000224,0.00087,1.003843,-0.023392,0.009354,0.022858,0.0,0.0,0.0,25.27,0.05,0.02,180.0,0.0,0.0,0.0,0.0,0,99.99,0.0
32242731,1766326464200495,0,0,-0.001018,0.000382,1.003721,-0.000503,0.001724,0.015228,0.0,0.0,0.0,25.29,0.02,0.06,180.0,0.0,0.0,0.0,0.0,0,99.99,0.0
32271731,1766326464229495,0,0,-0.000896,0.000199,1.003782,0.014755,-0.021164,-0.015289,0.0,0.0,0.0,25.28,0.01,0.05,180.0,0.0,0.0,0.0,0.0,0,99.99,0.0
32300730,1766326464258494,0,0,-0.000468,0.000138,1.003171,-0.000503,-0.028793,-0.030548,0.0,0.0,0.0,25.28,0.01,0.03,180.0,0.0,0.0,0.0,0.0,0,99.99,0.0
32330731,1766326464288495,0,0,-0.001262,7.7e-05,1.003355,-0.000503,-0.005905,-0.00766,0.0,0.0,0.0,25.28,-0.0,0.08,180.0,0.0,0.0,0.0,0.0,0,99.99,0.0
32359731,1766326464317495,0,0,-0.00059,0.000443,1.004392,-0.008133,0.024612,-0.00766,0.0,0.0,0.0,25.28,0.03,0.02,180.0,0.0,0.0,0.0,0.0,0,99.99,0.0
32388730,1766326464346494,0,0,-0.000346,0.00026,1.002927,0.007126,-0.021164,-3.1e-05,0.0,0.0,0.0,25.28,0.02,0.02,180.0,0.0,0.0,0.0,0.0,0,99.99,0.0
32417732,1766326464375496,0,0,2e-05,0.001175,1.002622,0.014755,-0.036423,-0.038177,0.0,0.0,0.0,25.28,0.08,0.01,180.0,0.0,0.0,0.0,0.0,0,99.99,0.0
32446730,1766326464404494,0,0,-0.000957,0.000931,1.002317,0.030014,-0.044052,-0.00766,0.0,0.0,0.0,25.28,0.06,0.04,180.0,0.0,0.0,0.0,0.0,0,99.99,0.0
32476731,1766326464434495,0,0,-0.000529,0.000992,1.00311,-0.000503,-0.005905,0.015228,0.0,0.0,0.0,25.27,0.05,0.03,180.0,0.0,0.0,0.0,0.0,0,99.99,0.0
32515730,1766326464473494,0,0,-4.1e-05,0.000809,1.003599,0.022385,-0.021164,0.007599,0.0,0.0,0.0,25.28,0.05,0.01,180.0,0.0,0.0,0.0,0.0,0,99.99,0.0
32542730,1766326464500494,0,0,-0.000224,0.000443,1.003171,-0.008133,0.001724,-0.00766,0.0,0.0,0.0,25.27,0.02,0.02,180.0,0.0,0.0,0.0,0.0,0,99.99,0.0
32589739,1766326464547503,0,0,-0.000529,0.001175,1.003171,-0.023392,-0.028793,0.022858,0.0,0.0,0.0,25.28,0.07,0.03,180.0,0.0,0.0,0.0,0.0,0,99.99,0.0
32618730,1766326464576494,0,0,0.000264,0.00087,1.002622,0.030014,-0.059311,-0.030548,0.0,0.0,0.0,25.29,0.04,0.0,180.0,0.0,0.0,0.0,0.0,0,99.99,0.0
32647738,1766326464605502,0,0,8.1e-05,0.000809,1.002927,-0.008133,-0.013535,0.007599,0.0,0.0,0.0,25.28,0.04,-0.0,180.0,0.0,0.0,0.0,0.0,0,99.99,0.0
32675731,1766326464633495,0,0,0.000508,0.000443,1.003477,0.014755,-0.036423,-0.030548,0.0,0.0,0.0,25.28,0.01,-0.02,180.0,0.0,0.0,0.0,0.0,0,99.99,0.0
32704730,1766326464662494,0,0,-0.000468,0.000992,1.002866,-0.031021,-0.044052,0.007599,0.0,0.0,0.0,25.27,0.05,0.01,180.0,0.0,0.0,0.0,0.0,0,99.99,0.0
32736731,1766326464694495,0,0,0.000142,0.000382,1.003904,-0.03865,-0.021164,-0.015289,0.0,0.0,0.0,25.27,0.04,0.0,180.0,0.0,0.0,0.0,0.0,0,99.99,0.0
32763731,1766326464721495,0,0,-0.000468,0.000748,1.003416,-0.03865,-0.044052,-0.022919,0.0,0.0,0.0,25.28,0.03,0.03,180.0,0.0,0.0,0.0,0.0,0,99.99,0.0
32792731,1766326464750495,0,0,-0.000407,0.001358,1.003355,-0.015762,-0.036423,-0.00766,0.0,0.0,0.0,25.28,0.08,0.02,180.0,0.0,0.0,0.0,0.0,0,99.99,0.0
32820739,1766326464778503,0,0,-0.000713,0.000443,1.00366,-0.015762,-0.051682,-0.00766,0.0,0.0,0.0,25.28,0.04,0.04,180.0,0.0,0.0,0.0,0.0,0,99.99,0.0
32851730,1766326464809494,0,0,-0.00114,0.000443,1.00366,0.022385,-0.044052,0.022858,0.0,0.0,0.0,25.28,0.04,0.06,180.0,0.0,0.0,0.0,0.0,0,99.99,0.0
32884732,1766326464842496,0,0,-0.000713,0.000626,1.002988,0.007126,-0.005905,0.015228,0.0,0.0,0.0,25.28,0.05,0.05,180.0,0.0,0.0,0.0,0.0,0,99.99,0.0
32916732,1766326464874496,0,0,-0.000468,0.000443,1.00311,-0.015762,0.016983,-0.022919,0.0,0.0,0.0,25.28,0.03,0.02,180.0,0.0,0.0,0.0,0.0,0,99.99,0.0
32945737,1766326464903501,0,0,-0.000835,0.00087,1.002988,-0.015762,-0.005905,-0.00766,0.0,0.0,0.0,25.28,0.06,0.06,180.0,0.0,0.0,0.0,0.0,0,99.99,0.0
32990732,1766326464948496,0,0,-0.000285,0.000382,1.003782,-0.000503,-0.005905,0.038116,0.0,0.0,0.0,25.27,0.02,0.02,180.0,0.0,0.0,0.0,0.0,0,99.99,0.0
33018737,1766326464976501,0,0,-0.001018,0.000138,1.003355,-0.008133,-0.036423,-0.053436,0.0,0.0,0.0,25.27,-0.0,0.08,180.0,0.0,0.0,0.0,0.0,0,99.99,0.0
33047730,1766326465005494,0,0,-0.000651,0.000443,1.003477,-0.015762,-0.028793,-0.00766,0.0,0.0,0.0,25.28,0.02,0.05,180.0,0.0,0.0,0.0,0.0,0,99.99,0.0
33076730,1766326465034494,0,0,-0.000346,1.6e-05,1.002866,0.022385,-0.028793,0.007599,0.0,0.0,0.0,25.27,0.01,0.02,180.0,0.0,0.0,0.0,0.0,0,99.99,0.0
33105731,1766326465063495,0,0,-0.000774,0.000626,1.003904,-0.008133,-0.021164,-0.030548,0.0,0.0,0.0,25.28,0.04,0.05,180.0,0.0,0.0,0.0,0.0,0,99.99,0.0
33134738,1766326465092502,0,0,-0.00059,0.000626,1.004026,-0.023392,-0.051682,-0.022919,0.0,0.0,0.0,25.28,0.03,0.04,180.0,0.0,0.0,0.0,0.0,0,99.99,0.0
33163730,1766326465121494,0,0,-0.000896,1.6e-05,1.002805,-0.015762,-0.051682,-0.045807,0.0,0.0,0.0,25.28,-0.01,0.07,180.0,0.0,0.0,0.0,0.0,0,99.99,0.0
33193731,1766326465151495,0,0,-0.000285,0.000687,1.003232,-0.023392,-0.051682,-0.00766,0.0,0.0,0.0,25.28,0.04,0.02,180.0,0.0,0.0,0.0,0.0,0,99.99,0.0
33221730,1766326465179494,0,0,-0.000285,0.000443,1.004209,-0.000503,-0.059311,0.007599,0.0,0.0,0.0,25.28,0.04,0.02,180.0,0.0,0.0,0.0,0.0,0,99.99,0.0
33250739,1766326465208503,0,0,-0.000468,0.000992,1.002744,-0.03865,-0.051682,-0.015289,0.0,0.0,0.0,25.28,0.08,0.04,180.0,0.0,0.0,0.0,0.0,0,99.99,0.0
33282730,1766326465240494,0,0,-0.000407,0.000138,1.003477,-0.008133,-0.051682,-3.1e-05,0.0,0.0,0.0,25.28,0.0,0.02,180.0,0.0,0.0,0.0,0.0,0,99.99,0.0
33310731,1766326465268495,0,0,-0.000529,0.000138,1.004087,-0.031021,-0.013535,0.015228,0.0,0.0,0.0,25.27,0.0,0.02,180.0,0.0,0.0,0.0,0.0,0,99.99,0.0
33339730,1766326465297494,0,0,-0.000163,0.000931,1.003049,-0.031021,0.001724,-0.022919,0.0,0.0,0.0,25.27,0.04,0.0,180.0,0.0,0.0,0.0,0.0,0,99.99,0.0
33367730,1766326465325494,0,0,-0.000957,0.000382,1.003294,-0.015762,-0.005905,0.015228,0.0,0.0,0.0,25.27,0.03,0.05,180.0,0.0,0.0,0.0,0.0,0,99.99,0.0
33408730,1766326465366494,0,0,-0.000285,0.000443,1.002866,0.022385,-0.028793,0.007599,0.0,0.0,0.0,25.27,0.03,0.02,180.0,0.0,0.0,0.0,0.0,0,99.99,0.0
33436730,1766326465394494,0,0,-0.001384,0.000504,1.003416,0.014755,-0.036423,0.022858,0.0,0.0,0.0,25.28,0.03,0.07,180.0,0.0,0.0,0.0,0.0,0,99.99,0.0
33466731,1766326465424495,0,0,-0.000774,0.001053,1.004819,-0.008133,-0.028793,0.007599,0.0,0.0,0.0,25.28,0.07,0.04,180.0,0.0,0.0,0.0,0.0,0,99.99,0.0
33494730,1766326465452494,0,0,-0.001201,0.000809,1.003721,-0.015762,0.001724,0.007599,0.0,0.0,0.0,25.27,0.05,0.07,180.0,0.0,0.0,0.0,0.0,0,99.99,0.0
33523731,1766326465481495,0,0,-0.001018,0.000626,1.002927,-0.04628,-0.021164,-3.1e-05,0.0,0.0,0.0,25.28,0.03,0.04,180.0,0.0,0.0,0.0,0.0,0,99.99,0.0
33552730,1766326465510494,0,0,-0.000957,0.000626,1.003049,-0.015762,-0.028793,0.038116,0.0,0.0,0.0,25.28,0.02,0.07,180.0,0.0,0.0,0.0,0.0,0,99.99,0.0
33581733,1766326465539497,0,0,-0.000896,0.000809,1.002561,0.030014,-0.021164,0.030487,0.0,0.0,0.0,25.29,0.05,0.05,180.0,0.0,0.0,0.0,0.0,0,99.99,0.0
33617731,1766326465575495,0,0,-0.000468,0.000199,1.003355,0.022385,-0.005905,0.053375,0.0,0.0,0.0,25.29,0.01,0.04,180.0,0.0,0.0,0.0,0.0,0,99.99,0.0
33645732,1766326465603496,0,0,-0.000224,0.000504,1.002439,0.030014,-0.044052,0.045746,0.0,0.0,0.0,25.3,0.02,0.01,180.0,0.0,0.0,0.0,0.0,0,99.99,0.0
33675730,1766326465633494,0,0,-0.000713,0.000199,1.002317,0.007126,-0.013535,0.030487,0.0,0.0,0.0,25.29,0.01,0.04,180.0,0.0,0.0,0.0,0.0,0,99.99,0.0
33704731,1766326465662495,0,0,-0.000529,0.000382,1.001829,-0.023392,-0.005905,0.045746,0.0,0.0,0.0,25.28,0.02,0.03,180.0,0.0,0.0,0.0,0.0,0,99.99,0.0
33733731,1766326465691495,0,0,-0.000957,0.000443,1.002805,-0.008133,-0.013535,0.030487,0.0,0.0,0.0,25.28,0.04,0.06,180.0,0.0,0.0,0.0,0.0,0,99.99,0.0
33761730,1766326465719494,0,0,-0.000407,0.000565,1.003171,0.007126,-0.013535,0.015228,0.0,0.0,0.0,25.28,0.03,0.02,180.0,0.0,0.0,0.0,0.0,0,99.99,0.0
33790731,1766326465748495,0,0,-0.000163,0.000687,1.003599,-0.008133,-0.028793,0.038116,0.0,0.0,0.0,25.28,0.03,0.01,180.0,0.0,0.0,0.0,0.0,0,99.99,0.0
33822730,1766326465780494,0,0,-0.000774,0.000504,1.002805,-0.031021,-0.028793,-3.1e-05,0.0,0.0,0.0,25.27,0.03,0.02,180.0,0.0,0.0,0.0,0.0,0,99.99,0.0
33859731,1766326465817495,0,0,-0.000957,0.00026,1.00311,-0.031021,-0.021164,0.068634,0.0,0.0,0.0,25.29,0.01,0.06,180.0,0.0,0.0,0.0,0.0,0,99.99,0.0
33888734,1766326465846498,0,0,-0.000774,0.000138,1.003232,-0.015762,-0.044052,0.076263,0.0,0.0,0.0,25.28,0.01,0.06,180.0,0.0,0.0,0.0,0.0,0,99.99,0.0
33916731,1766326465874495,0,0,-0.001018,0.000138,1.003416,-0.04628,-0.044052,0.030487,0.0,0.0,0.0,25.28,0.01,0.07,180.01,0.0,0.0,0.0,0.0,0,99.99,0.0
33946734,1766326465904498,0,0,-0.001323,0.000321,1.003416,-0.023392,-0.044052,0.022858,0.0,0.0,0.0,25.28,0.01,0.07,180.01,0.0,0.0,0.0,0.0,0,99.99,0.0
33975730,1766326465933494,0,0,-0.000774,0.000382,1.004636,-0.008133,-0.051682,-0.015289,0.0,0.0,0.0,25.28,0.02,0.05,180.01,0.0,0.0,0.0,0.0,0,99.99,0.0
34004738,1766326465962502,0,0,-0.00059,0.000504,1.004087,-0.015762,-0.028793,-0.00766,0.0,0.0,0.0,25.29,0.03,0.04,180.01,0.0,0.0,0.0,0.0,0,99.99,0.0
34032730,1766326465990494,0,0,-0.000224,0.000809,1.003965,-0.015762,-0.021164,-0.030548,0.0,0.0,0.0,25.29,0.05,0.01,180.01,0.0,0.0,0.0,0.0,0,99.99,0.0
34062731,1766326466020495,0,0,-0.000285,0.000504,1.003599,-0.000503,0.001724,-0.030548,0.0,0.0,0.0,25.29,0.04,-0.0,180.0,0.0,0.0,0.0,0.0,0,99.99,0.0
34092730,1766326466050494,0,0,-0.000529,1.6e-05,1.004575,-0.023392,0.001724,-0.015289,0.0,0.0,0.0,25.28,0.0,0.02,180.0,0.0,0.0,0.0,0.0,0,99.99,0.0
34120731,1766326466078495,0,0,-0.000285,0.00026,1.00366,-0.023392,-0.013535,-0.038177,0.0,0.0,0.0,25.29,0.02,0.02,180.0,0.0,0.0,0.0,0.0,0,99.99,0.0
34149733,1766326466107497,0,0,0.000142,0.000382,1.00427,-0.015762,-0.021164,-0.038177,0.0,0.0,0.0,25.29,0.01,-0.03,180.0,0.0,0.0,0.0,0.0,0,99.99,0.0
34178732,1766326466136496,0,0,-0.000651,0.000687,1.004026,-0.015762,-0.005905,0.030487,0.0,0.0,0.0,25.3,0.05,0.05,180.0,0.0,0.0,0.0,0.0,0,99.99,0.0
34208980,1766326466166744,0,0,-0.000102,0.000687,1.003355,-0.023392,-0.07457,0.061005,0.0,0.0,0.0,25.3,0.04,0.02,180.0,0.0,0.0,0.0,0.0,0,99.99,0.0
34236730,1766326466194494,0,0,-0.000774,0.000382,1.004941,-0.008133,-0.013535,0.030487,0.0,0.0,0.0,25.29,0.01,0.04,180.0,0.0,0.0,0.0,0.0,0,99.99,0.0
34279730,1766326466237494,0,0,-0.000896,0.000809,1.003904,0.007126,-0.013535,0.030487,0.0,0.0,0.0,25.29,0.05,0.05,180.0,0.0,0.0,0.0,0.0,0,99.99,0.0
34300731,1766326466258495,0,0,-0.00059,0.000931,1.003171,-0.008133,-0.013535,0.030487,0.0,0.0,0.0,25.29,0.05,0.03,180.01,0.0,0.0,0.0,0.0,0,99.99,0.0
34329731,1766326466287495,0,0,-0.000529,0.000931,1.003049,0.007126,-0.021164,0.022858,0.0,0.0,0.0,25.29,0.04,0.03,180.01,0.0,0.0,0.0,0.0,0,99.99,0.0
34359730,1766326466317494,0,0,0.000142,0.001114,1.003477,0.007126,-0.036423,0.030487,0.0,0.0,0.0,25.29,0.08,-0.01,180.01,0.0,0.0,0.0,0.0,0,99.99,0.0
34387732,1766326466345496,0,0,-0.000713,0.001114,1.003355,0.007126,-0.021164,0.022858,0.0,0.0,0.0,25.29,0.08,0.05,180.01,0.0,0.0,0.0,0.0,0,99.99,0.0
34415731,1766326466373495,0,0,-0.000529,0.000504,1.003599,0.007126,-0.044052,0.007599,0.0,0.0,0.0,25.29,0.03,0.03,180.01,0.0,0.0,0.0,0.0,0,99.99,0.0
34445731,1766326466403495,0,0,-4.1e-05,0.000138,1.003477,0.007126,-0.06694,-3.1e-05,0.0,0.0,0.0,25.29,0.01,-0.01,180.01,0.0,0.0,0.0,0.0,0,99.99,0.0
34474730,1766326466432494,0,0,-0.000468,0.000443,1.004209,-0.015762,-0.028793,0.045746,0.0,0.0,0.0,25.29,0.02,0.01,180.01,0.0,0.0,0.0,0.0,0,99.99,0.0
34503730,1766326466461494,0,0,-0.000835,0.000382,1.003843,-0.023392,-0.044052,-3.1e-05,0.0,0.0,0.0,25.29,0.01,0.06,180.01,0.0,0.0,0.0,0.0,0,99.99,0.0
34531732,1766326466489496,0,0,-0.000285,0.000748,1.003294,-0.015762,-0.021164,-0.00766,0.0,0.0,0.0,25.3,0.05,0.02,180.01,0.0,0.0,0.0,0.0,0,99.99,0.0
34561730,1766326466519494,0,0,-0.000835,0.00087,1.002317,0.014755,-0.036423,-0.022919,0.0,0.0,0.0,25.3,0.05,0.07,180.01,0.0,0.0,0.0,0.0,0,99.99,0.0
34592730,1766326466550494,0,0,-0.001506,0.00087,1.003171,-0.008133,0.001724,0.007599,0.0,0.0,0.0,25.29,0.06,0.08,180.01,0.0,0.0,0.0,0.0,0,99.99,0.0
34618734,1766326466576498,0,0,-0.001445,0.000687,1.003049,0.007126,0.001724,-0.015289,0.0,0.0,0.0,25.29,0.04,0.07,180.01,0.0,0.0,0.0,0.0,0,99.99,0.0
34647730,1766326466605494,0,0,-0.000651,0.000443,1.002988,-0.008133,-0.005905,-0.022919,0.0,0.0,0.0,25.3,0.02,0.03,180.01,0.0,0.0,0.0,0.0,0,99.99,0.0
34675730,1766326466633494,0,0,-0.001323,0.001053,1.002866,-0.031021,-0.036423,-3.1e-05,0.0,0.0,0.0,25.3,0.06,0.07,180.01,0.0,0.0,0.0,0.0,0,99.99,0.0
34717730,1766326466675494,0,0,-0.000957,0.000504,1.002744,0.007126,-0.036423,0.007599,0.0,0.0,0.0,25.3,0.02,0.06,180.01,0.0,0.0,0.0,0.0,0,99.99,0.0
34746737,1766326466704501,0,0,-0.000651,0.000626,1.002988,0.022385,-0.013535,-0.022919,0.0,0.0,0.0,25.29,0.03,0.04,180.01,0.0,0.0,0.0,0.0,0,99.99,0.0
34775730,1766326466733494,0,0,-0.000163,0.000626,1.002866,0.014755,-0.021164,-0.022919,0.0,0.0,0.0,25.29,0.02,0.0,180.01,0.0,0.0,0.0,0.0,0,99.99,0.0
34803733,1766326466761497,0,0,-0.000407,0.000626,1.002988,0.007126,0.001724,-0.00766,0.0,0.0,0.0,25.29,0.02,0.03,180.01,0.0,0.0,0.0,0.0,0,99.99,0.0
34833730,1766326466791494,0,0,8.1e-05,0.001236,1.002805,0.014755,-0.028793,0.053375,0.0,0.0,0.0,25.3,0.08,0.01,180.01,0.0,0.0,0.0,0.0,0,99.99,0.0
34862731,1766326466820495,0,0,-0.00059,0.000931,1.004575,0.014755,-0.005905,0.061005,0.0,0.0,0.0,25.29,0.06,0.05,180.01,0.0,0.0,0.0,0.0,0,99.99,0.0
34890739,1766326466848503,0,0,-0.000468,0.000748,1.004148,0.007126,-0.013535,0.015228,0.0,0.0,0.0,25.3,0.04,0.03,180.01,0.0,0.0,0.0,0.0,0,99.99,0.0
34918730,1766326466876494,0,0,-0.000529,0.000504,1.002561,0.007126,-0.021164,0.022858,0.0,0.0,0.0,25.3,0.03,0.04,180.01,0.0,0.0,0.0,0.0,0,99.99,0.0
34947731,1766326466905495,0,0,-0.000163,0.000687,1.002317,0.022385,-0.021164,-3.1e-05,0.0,0.0,0.0,25.29,0.04,0.01,180.01,0.0,0.0,0.0,0.0,0,99.99,0.0
34980731,1766326466938495,0,0,-0.000407,0.00087,1.003294,-0.015762,-0.021164,0.045746,0.0,0.0,0.0,25.3,0.05,0.03,180.01,0.0,0.0,0.0,0.0,0,99.99,0.0
35008732,1766326466966496,0,0,-0.000163,0.00087,1.003355,-0.031021,-0.013535,0.007599,0.0,0.0,0.0,25.29,0.06,0.0,180.01,0.0,0.0,0.0,0.0,0,99.99,0.0
35037730,1766326466995494,0,0,-0.000407,0.000565,1.003355,-0.008133,-0.028793,0.030487,0.0,0.0,0.0,25.3,0.02,0.02,180.01,0.0,0.0,0.0,0.0,0,99.99,0.0
35067733,1766326467025497,0,0,-0.000407,0.00148,1.002988,-0.03865,-0.044052,-0.00766,0.0,0.0,0.0,25.29,0.09,0.04,180.01,0.0,0.0,0.0,0.0,0,99.99,0.0
35096730,1766326467054494,0,0,-0.000102,0.001114,1.004148,-0.008133,-0.051682,0.038116,0.0,0.0,0.0,25.3,0.04,-0.0,180.01,0.0,0.0,0.0,0.0,0,99.99,0.0
35127730,1766326467085494,0,0,8.1e-05,0.000687,1.004087,0.007126,-0.051682,0.015228,0.0,0.0,0.0,25.3,0.05,0.01,180.01,0.0,0.0,0.0,0.0,0,99.99,0.0
35165730,1766326467123494,0,0,0.000203,0.000748,1.002744,-0.000503,-0.028793,0.015228,0.0,0.0,0.0,25.3,0.04,-0.02,180.01,0.0,0.0,0.0,0.0,0,99.99,0.0
35187980,1766326467145744,0,0,0.000386,-0.000107,1.002317,-0.008133,-0.021164,0.030487,0.0,0.0,0.0,25.3,-0.01,-0.01,180.01,0.0,0.0,0.0,0.0,0,99.99,0.0
35216731,1766326467174495,0,0,-0.000102,7.7e-05,1.003721,0.007126,-0.06694,0.022858,0.0,0.0,0.0,25.3,0.01,0.01,180.01,0.0,0.0,0.0,0.0,0,99.99,0.0
35246730,1766326467204494,0,0,-0.000346,0.000138,1.004392,-0.015762,-0.051682,-0.015289,0.0,0.0,0.0,25.3,0.01,0.01,180.01,0.0,0.0,0.0,0.0,0,99.99,0.0
35276730,1766326467234494,0,0,8.1e-05,0.00087,1.003294,0.014755,-0.051682,0.015228,0.0,0.0,0.0,25.3,0.04,0.0,180.01,0.0,0.0,0.0,0.0,0,99.99,0.0
35304731,1766326467262495,0,0,-0.000224,0.000931,1.003355,0.007126,-0.021164,-3.1e-05,0.0,0.0,0.0,25.3,0.05,0.01,180.01,0.0,0.0,0.0,0.0,0,99.99,0.0
35333980,1766326467291744,0,0,-0.000224,0.001175,1.003355,-0.000503,-0.028793,0.022858,0.0,0.0,0.0,25.3,0.06,0.01,180.01,0.0,0.0,0.0,0.0,0,99.99,0.0
35362730,1766326467320494,0,0,-0.000407,0.00087,1.003782,0.014755,-0.021164,-3.1e-05,0.0,0.0,0.0,25.3,0.06,0.03,180.01,0.0,0.0,0.0,0.0,0,99.99,0.0
35391730,1766326467349494,0,0,-0.000651,0.001053,1.003782,-0.023392,-0.028793,-0.00766,0.0,0.0,0.0,25.3,0.06,0.05,180.01,0.0,0.0,0.0,0.0,0,99.99,0.0
