RX_ESP_elapsed_us,PC_time_us,UTC_Date,UTC_Time,AccX,AccY,AccZ,GyroX,GyroY,GyroZ,MagX,MagY,MagZ,Temp,Roll,Pitch,Yaw,Lat,Lng,Speed_kmph,Alt_meters,Satellites,HDOP,Heading
351639486,1765370785397277,101225,12462500,-0.0078,0.006101,1.002201,-0.021744,0.049927,-0.002121,-31.797602,23.734869,31.899513,22.98,0.38,0.45,35.05,31.838895,34.821003,1.17,41.5,4,6.95,117.11
351643486,1765370785401277,101225,12462500,-0.007739,0.005734,1.00275,-0.014114,0.034668,-0.00975,-31.797602,23.734869,31.899513,22.98,0.39,0.45,35.07,31.838895,34.821003,1.17,41.5,4,6.95,117.11
351707486,1765370785465277,101225,12462500,-0.008349,0.006528,0.99921,0.153732,-0.148438,-0.047897,-31.797602,23.734869,31.899513,22.99,0.48,0.39,35.23,31.838895,34.821003,1.17,41.5,4,6.95,117.11
351711486,1765370785469277,101225,12462500,-0.008044,0.006711,0.999393,0.138473,-0.156067,-0.047897,-31.797602,23.734869,31.899513,22.98,0.48,0.38,35.24,31.838895,34.821003,1.17,41.5,4,6.95,117.11
351715486,1765370785473277,101225,12462500,-0.008166,0.00726,0.999637,0.138473,-0.156067,-0.025009,-31.797602,23.734869,31.899513,22.98,0.49,0.38,35.25,31.838895,34.821003,1.17,41.5,4,6.95,117.11
351719486,1765370785477277,101225,12462500,-0.008105,0.00726,1.000553,0.153732,-0.148438,-0.040268,-31.440325,22.296391,30.859312,22.98,0.49,0.38,35.26,31.838895,34.821003,1.17,41.5,4,6.95,117.11
351771486,1765370785529277,101225,12462500,-0.008777,0.006894,1.001163,0.130844,-0.049255,-0.070786,-31.440325,22.296391,30.859312,22.99,0.47,0.41,35.25,31.838895,34.821003,1.17,41.5,4,6.95,117.11
351775486,1765370785533277,101225,12462500,-0.008655,0.006833,1.002567,0.123215,-0.056885,-0.063156,-31.440325,22.296391,30.859312,22.99,0.47,0.41,35.25,31.838895,34.821003,1.17,41.5,4,6.95,117.11
351779486,1765370785537277,101225,12462500,-0.008349,0.006528,1.002506,0.138473,-0.102661,-0.055527,-31.440325,22.296391,30.859312,22.99,0.46,0.41,35.25,31.838895,34.821003,1.17,41.5,4,6.95,117.11
351783486,1765370785541277,101225,12462500,-0.008471,0.006772,1.001835,0.168991,-0.095032,-0.047897,-31.440325,22.296391,30.859312,22.99,0.46,0.41,35.25,31.838895,34.821003,1.17,41.5,4,6.95,117.11
351835486,1765370785593277,101225,12462500,-0.008594,0.006589,0.999332,0.077438,-0.011108,-0.040268,-31.440325,22.296391,30.859312,22.99,0.44,0.43,35.25,31.838895,34.821003,1.17,41.5,4,6.95,117.11
351839486,1765370785597277,101225,12462500,-0.008716,0.006284,0.999698,0.085068,-0.011108,-0.040268,-31.440325,22.296391,30.859312,22.99,0.44,0.43,35.25,31.838895,34.821003,1.17,41.5,4,6.95,117.11
351843486,1765370785601277,101225,12462500,-0.008838,0.006162,1.000492,0.06218,0.00415,-0.032639,-31.440325,22.296391,30.859312,22.99,0.44,0.43,35.25,31.838895,34.821003,1.17,41.5,4,6.95,117.11
351847486,1765370785605277,101225,12462500,-0.009204,0.006223,1.000614,0.06218,0.00415,-0.032639,-31.618963,22.4762,30.685946,22.99,0.44,0.44,35.25,31.838895,34.821003,1.17,41.5,4,6.95,117.11
351899486,1765370785657277,101225,12462500,-0.008532,0.006345,1.000431,0.001144,0.027039,-0.025009,-31.618963,22.4762,30.685946,23.0,0.43,0.45,35.26,31.838895,34.821003,1.17,41.5,4,6.95,117.11
351903486,1765370785661277,101225,12462500,-0.008777,0.006528,1.001163,0.008774,0.027039,-0.040268,-31.618963,22.4762,30.685946,23.0,0.42,0.45,35.26,31.838895,34.821003,1.17,41.5,4,6.95,117.11
351907486,1765370785665277,101225,12462500,-0.008532,0.006345,1.001346,0.008774,0.034668,-0.047897,-31.618963,22.4762,30.685946,23.0,0.42,0.45,35.26,31.838895,34.821003,1.17,41.5,4,6.95,117.11
351911486,1765370785669277,101225,12462500,-0.008227,0.006223,1.001529,0.008774,0.034668,-0.032639,-31.618963,22.4762,30.685946,23.0,0.42,0.45,35.26,31.838895,34.821003,1.17,41.5,4,6.95,117.11
351975486,1765370785733277,101225,12462500,-0.008166,0.007382,1.001529,0.06218,0.042297,-0.00975,-32.333515,22.116581,32.766346,22.99,0.41,0.46,35.26,31.838895,34.821003,1.17,41.5,4,6.95,117.11
351979486,1765370785737277,101225,12462500,-0.008044,0.007199,1.002445,0.05455,0.034668,0.013138,-32.333515,22.116581,32.766346,22.99,0.41,0.46,35.25,31.838895,34.821003,1.17,41.5,4,6.95,117.11
351983486,1765370785741277,101225,12462500,-0.008105,0.007016,1.002689,0.05455,0.027039,-0.002121,-32.333515,22.116581,32.766346,22.99,0.4,0.47,35.25,31.838895,34.821003,1.17,41.5,4,6.95,117.11
351987486,1765370785745277,101225,12462500,-0.008166,0.007138,1.00275,0.06218,0.027039,0.005508,-32.333515,22.116581,32.766346,22.99,0.4,0.47,35.24,31.838895,34.821003,1.17,41.5,4,6.95,117.11
352039486,1765370785797277,101225,12462500,-0.007922,0.007443,1.000492,0.046921,-0.003479,-0.025009,-32.333515,22.116581,32.766346,22.98,0.36,0.49,35.16,31.838895,34.821003,1.17,41.5,4,6.95,117.11
352043486,1765370785801277,101225,12462500,-0.008105,0.007321,1.000675,0.039291,-0.003479,-0.040268,-32.333515,22.116581,32.766346,22.98,0.36,0.5,35.16,31.838895,34.821003,1.17,41.5,4,6.95,117.11
352047486,1765370785805277,101225,12462500,-0.008349,0.007077,1.001224,0.031662,-0.033997,-0.032639,-32.333515,22.116581,32.766346,22.98,0.36,0.5,35.15,31.838895,34.821003,1.17,41.5,4,6.95,117.11
352051486,1765370785809277,101225,12462500,-0.008471,0.007016,1.001041,0.039291,-0.026367,-0.032639,-32.333515,22.116581,32.766346,22.98,0.35,0.5,35.15,31.838895,34.821003,1.17,41.5,4,6.95,117.11
352107486,1765370785865277,101225,12462600,-0.00841,0.00781,1.002018,-0.029373,-0.011108,0.013138,-32.333515,22.116581,32.766346,22.98,0.33,0.53,35.08,31.838902,34.821006,1.61,41.5,4,6.95,117.11
352111486,1765370785869277,101225,12462600,-0.008716,0.007504,1.002628,-0.021744,-0.011108,0.005508,-32.333515,22.116581,32.766346,22.99,0.33,0.53,35.07,31.838902,34.821006,1.61,41.5,4,6.95,117.11
352115486,1765370785873277,101225,12462600,-0.008594,0.007688,1.002567,-0.029373,-0.026367,-0.00975,-32.333515,22.116581,32.766346,22.99,0.33,0.53,35.07,31.838902,34.821006,1.61,41.5,4,6.95,117.11
352119486,1765370785877277,101225,12462600,-0.008532,0.007382,1.002445,-0.006485,-0.011108,-0.00975,-32.333515,22.116581,32.766346,22.99,0.33,0.53,35.06,31.838902,34.821006,1.61,41.5,4,6.95,117.11
352183486,1765370785941277,101225,12462600,-0.008594,0.007199,1.000858,0.008774,0.042297,0.005508,-32.333515,22.116581,32.766346,22.99,0.32,0.54,35.0,31.838902,34.821006,1.61,41.5,4,6.95,117.11
352187486,1765370785945277,101225,12462600,-0.00841,0.007138,1.000797,0.008774,0.034668,0.013138,-32.333515,22.116581,32.766346,22.99,0.32,0.54,34.99,31.838902,34.821006,1.61,41.5,4,6.95,117.11
352191486,1765370785949277,101225,12462600,-0.00841,0.007321,1.000614,0.016403,0.027039,0.020767,-32.333515,22.116581,32.766346,22.99,0.32,0.54,34.99,31.838902,34.821006,1.61,41.5,4,6.95,117.11
352247486,1765370786005277,101225,12462600,-0.008594,0.006589,1.001773,0.031662,0.034668,-0.00975,-31.261686,22.116581,32.07288,22.98,0.33,0.53,34.98,31.838902,34.821006,1.61,41.9,4,6.96,117.11
352251486,1765370786009277,101225,12462600,-0.008532,0.006528,1.001835,0.031662,0.01178,-0.00975,-31.261686,22.116581,32.07288,22.98,0.34,0.53,34.98,31.838902,34.821006,1.61,41.9,4,6.96,117.11
352255486,1765370786013277,101225,12462600,-0.008166,0.006223,1.001835,0.016403,-0.003479,-0.01738,-31.261686,22.116581,32.07288,22.98,0.34,0.53,34.98,31.838902,34.821006,1.61,41.9,4,6.96,117.11
352259486,1765370786017277,101225,12462600,-0.008044,0.006223,1.001651,0.016403,-0.003479,-0.00975,-31.261686,22.116581,32.07288,22.98,0.34,0.52,34.99,31.838902,34.821006,1.61,41.9,4,6.96,117.11
352299486,1765370786057277,101225,12462600,-0.008594,0.006711,0.999332,0.031662,0.034668,-0.01738,-31.261686,22.116581,32.07288,22.99,0.36,0.51,35.01,31.838902,34.821006,1.61,41.9,4,6.96,117.11
352303486,1765370786061277,101225,12462600,-0.008349,0.006772,0.999332,0.039291,0.019409,-0.002121,-31.261686,22.116581,32.07288,22.99,0.36,0.5,35.01,31.838902,34.821006,1.61,41.9,4,6.96,117.11
352307486,1765370786065277,101225,12462600,-0.008166,0.006589,0.99982,0.039291,0.019409,0.013138,-31.261686,22.116581,32.07288,22.99,0.36,0.5,35.01,31.838902,34.821006,1.61,41.9,4,6.96,117.11
352311486,1765370786069277,101225,12462600,-0.008105,0.007016,0.999393,0.039291,0.019409,-0.002121,-31.261686,22.116581,32.07288,22.98,0.36,0.5,35.01,31.838902,34.821006,1.61,41.9,4,6.96,117.11
352367486,1765370786125277,101225,12462600,-0.008227,0.006711,1.00159,-0.037003,-0.026367,-0.032639,-31.797602,21.936773,32.592979,22.98,0.37,0.49,35.01,31.838902,34.821006,1.61,41.9,4,6.96,117.11
352371486,1765370786129277,101225,12462600,-0.007983,0.006772,1.001651,-0.044632,-0.033997,-0.040268,-31.797602,21.936773,32.592979,22.98,0.36,0.49,35.01,31.838902,34.821006,1.61,41.9,4,6.96,117.11
352375486,1765370786133277,101225,12462600,-0.007739,0.006711,1.001651,-0.021744,-0.033997,-0.040268,-31.797602,21.936773,32.592979,22.99,0.36,0.49,35.0,31.838902,34.821006,1.61,41.9,4,6.96,117.11
352379486,1765370786137277,101225,12462600,-0.007495,0.006711,1.001285,-0.029373,-0.033997,-0.032639,-31.797602,21.936773,32.592979,22.98,0.36,0.49,35.0,31.838902,34.821006,1.61,41.9,4,6.96,117.11
352431486,1765370786189277,101225,12462600,-0.009021,0.006589,0.999698,0.016403,0.00415,-0.00975,-31.797602,21.936773,32.592979,22.97,0.34,0.5,34.96,31.838902,34.821006,1.61,41.9,4,6.96,117.11
352435486,1765370786193277,101225,12462600,-0.008838,0.006406,1.000003,0.008774,-0.003479,-0.00975,-31.797602,21.936773,32.592979,22.97,0.34,0.5,34.96,31.838902,34.821006,1.61,41.9,4,6.96,117.11
352439486,1765370786197277,101225,12462600,-0.009082,0.00665,0.999881,0.008774,-0.003479,0.005508,-31.797602,21.936773,32.592979,22.97,0.34,0.5,34.96,31.838902,34.821006,1.61,41.9,4,6.96,117.11
352443486,1765370786201277,101225,12462600,-0.008716,0.006894,0.999637,0.024033,-0.003479,-0.01738,-31.797602,21.936773,32.592979,22.97,0.34,0.5,34.96,31.838902,34.821006,1.61,41.9,4,6.96,117.11
352507486,1765370786265277,101225,12462600,-0.008532,0.006528,1.000309,0.016403,-0.041626,-0.055527,-31.618963,22.116581,31.379412,22.97,0.35,0.5,34.94,31.838902,34.821006,1.61,41.9,4,6.96,117.11
352511486,1765370786269277,101225,12462600,-0.008288,0.006406,0.99982,0.024033,-0.026367,-0.025009,-31.618963,22.116581,31.379412,22.97,0.35,0.5,34.94,31.838902,34.821006,1.61,41.9,4,6.96,117.11
352515486,1765370786273277,101225,12462600,-0.008594,0.006589,0.999576,0.031662,-0.033997,-0.01738,-31.618963,22.116581,31.379412,22.97,0.35,0.5,34.94,31.838902,34.821006,1.61,41.9,4,6.96,117.11
352519486,1765370786277277,101225,12462600,-0.008655,0.006772,0.999881,0.024033,-0.026367,-0.025009,-31.618963,22.116581,31.379412,22.97,0.35,0.5,34.94,31.838902,34.821006,1.61,41.9,4,6.96,117.11
352571486,1765370786329277,101225,12462600,-0.007739,0.007016,0.999698,0.001144,-0.011108,-0.032639,-31.618963,22.116581,31.379412,22.96,0.36,0.49,34.95,31.838902,34.821006,1.61,41.9,4,6.96,117.11
352575486,1765370786333277,101225,12462600,-0.007983,0.007321,0.999454,0.008774,-0.003479,-0.032639,-31.618963,22.116581,31.379412,22.96,0.37,0.49,34.95,31.838902,34.821006,1.61,41.9,4,6.96,117.11
352579486,1765370786337277,101225,12462600,-0.007922,0.00726,0.99982,0.016403,0.019409,-0.00975,-31.618963,22.116581,31.379412,22.96,0.37,0.49,34.95,31.838902,34.821006,1.61,41.9,4,6.96,117.11
352583486,1765370786341277,101225,12462600,-0.007861,0.007199,1.000309,0.016403,0.00415,-0.025009,-31.618963,22.116581,31.379412,22.96,0.37,0.49,34.95,31.838902,34.821006,1.61,41.9,4,6.96,117.11
352635486,1765370786393277,101225,12462600,-0.008899,0.007199,1.000003,0.016403,-0.003479,-0.002121,-31.083048,23.015629,30.859312,22.97,0.44,0.44,35.05,31.838902,34.821006,1.61,41.9,4,6.96,117.11
352639486,1765370786397277,101225,12462600,-0.008899,0.007565,1.000003,0.016403,-0.003479,0.005508,-31.083048,23.015629,30.859312,22.97,0.45,0.44,35.06,31.838902,34.821006,1.61,41.9,4,6.96,117.11
352643486,1765370786401277,101225,12462600,-0.009021,0.007382,0.999698,0.008774,0.01178,-0.002121,-31.083048,23.015629,30.859312,22.97,0.45,0.43,35.07,31.838902,34.821006,1.61,41.9,4,6.96,117.11
352647486,1765370786405277,101225,12462600,-0.008838,0.007382,0.999942,0.001144,0.019409,-0.00975,-31.083048,23.015629,30.859312,22.97,0.46,0.43,35.08,31.838902,34.821006,1.61,41.9,4,6.96,117.11
352711486,1765370786469277,101225,12462600,-0.008777,0.007382,0.999698,0.024033,0.049927,-0.01738,-31.083048,23.015629,30.859312,22.96,0.52,0.4,35.22,31.838902,34.821006,1.61,41.9,4,6.96,117.11
352715486,1765370786473277,101225,12462600,-0.008594,0.007199,0.999576,0.024033,0.042297,-0.01738,-31.083048,23.015629,30.859312,22.96,0.52,0.4,35.23,31.838902,34.821006,1.61,41.9,4,6.96,117.11
352719486,1765370786477277,101225,12462600,-0.008838,0.007077,0.999332,0.031662,0.034668,-0.01738,-31.083048,23.015629,30.859312,22.97,0.52,0.4,35.23,31.838902,34.821006,1.61,41.9,4,6.96,117.11
352723486,1765370786481277,101225,12462600,-0.00896,0.007382,0.99982,0.008774,0.042297,-0.00975,-31.083048,23.015629,30.859312,22.97,0.53,0.39,35.24,31.838902,34.821006,1.61,41.9,4,6.96,117.11
352775486,1765370786533277,101225,12462600,-0.008655,0.007932,1.002445,-0.029373,0.049927,-0.025009,-31.083048,23.015629,30.859312,22.98,0.55,0.38,35.34,31.838902,34.821006,1.61,41.9,4,6.96,117.11
352779486,1765370786537277,101225,12462600,-0.008777,0.007626,1.002262,0.001144,0.042297,-0.025009,-31.083048,23.015629,30.859312,22.97,0.56,0.38,35.34,31.838902,34.821006,1.61,41.9,4,6.96,117.11
352783486,1765370786541277,101225,12462600,-0.008716,0.007626,1.001163,0.024033,0.00415,-0.025009,-31.083048,23.015629,30.859312,22.97,0.56,0.38,35.35,31.838902,34.821006,1.61,41.9,4,6.96,117.11
352787486,1765370786545277,101225,12462600,-0.00841,0.008054,0.999271,0.046921,0.00415,-0.032639,-31.083048,23.015629,30.859312,22.97,0.56,0.38,35.36,31.838902,34.821006,1.61,41.9,4,6.96,117.11
352839486,1765370786597277,101225,12462600,-0.008655,0.006711,1.001102,0.024033,0.01178,0.020767,-31.083048,23.015629,30.859312,22.96,0.58,0.37,35.44,31.838902,34.821006,1.61,41.9,4,6.96,117.11
352843486,1765370786601277,101225,12462600,-0.008166,0.006711,1.001163,0.039291,0.01178,0.028397,-31.083048,23.015629,30.859312,22.96,0.58,0.37,35.45,31.838902,34.821006,1.61,41.9,4,6.96,117.11
352847486,1765370786605277,101225,12462600,-0.008044,0.006223,1.001041,0.031662,0.01178,0.036026,-31.618963,22.116581,32.419613,22.96,0.57,0.38,35.45,31.838902,34.821006,1.61,41.9,4,6.96,117.11
352851486,1765370786609277,101225,12462600,-0.008105,0.006284,1.001163,0.046921,0.01178,0.020767,-31.618963,22.116581,32.419613,22.96,0.56,0.38,35.44,31.838902,34.821006,1.61,41.9,4,6.96,117.11
352907486,1765370786665277,101225,12462600,-0.008532,0.006406,1.000003,0.031662,0.01178,0.005508,-31.618963,22.116581,32.419613,22.98,0.48,0.43,35.39,31.838902,34.821006,1.61,41.9,4,6.96,117.11
352911486,1765370786669277,101225,12462600,-0.008471,0.006711,1.000187,0.046921,0.034668,0.013138,-31.618963,22.116581,32.419613,22.97,0.47,0.43,35.38,31.838902,34.821006,1.61,41.9,4,6.96,117.11
352915486,1765370786673277,101225,12462600,-0.008655,0.006833,1.000553,0.039291,0.027039,0.013138,-31.618963,22.116581,32.419613,22.97,0.47,0.44,35.38,31.838902,34.821006,1.61,41.9,4,6.96,117.11
352919486,1765370786677277,101225,12462600,-0.008716,0.007138,1.000614,0.046921,0.00415,0.013138,-31.618963,22.116581,32.419613,22.98,0.47,0.44,35.37,31.838902,34.821006,1.61,41.9,4,6.96,117.11
352979486,1765370786737277,101225,12462600,-0.008838,0.007077,0.999454,-0.029373,0.088074,-0.025009,-32.154877,21.577152,31.899513,22.98,0.41,0.48,35.31,31.838902,34.821006,1.61,41.9,4,6.96,117.11
352983486,1765370786741277,101225,12462600,-0.008594,0.006772,1.001896,-0.044632,0.057556,-0.040268,-32.154877,21.577152,31.899513,22.98,0.4,0.49,35.3,31.838902,34.821006,1.61,41.9,4,6.96,117.11
352987486,1765370786745277,101225,12462600,-0.008349,0.006406,1.003605,-0.006485,0.065186,-0.025009,-32.154877,21.577152,31.899513,22.97,0.4,0.49,35.29,31.838902,34.821006,1.61,41.9,4,6.96,117.11
352991486,1765370786749277,101225,12462600,-0.008594,0.006589,1.003605,0.016403,0.049927,-0.025009,-32.154877,21.577152,31.899513,22.97,0.39,0.5,35.28,31.838902,34.821006,1.61,41.9,4,6.96,117.11
353047486,1765370786805277,101225,12462600,-0.008349,0.006955,0.999576,0.046921,0.01178,-0.032639,-32.154877,21.577152,31.899513,22.97,0.31,0.55,35.15,31.838902,34.821006,1.61,41.9,4,6.96,117.11
353051486,1765370786809277,101225,12462600,-0.00841,0.006955,1.001163,0.05455,0.019409,-0.040268,-32.154877,21.577152,31.899513,22.97,0.31,0.55,35.14,31.838902,34.821006,1.61,41.9,4,6.96,117.11
353055486,1765370786813277,101225,12462600,-0.00841,0.007016,1.001346,0.05455,-0.003479,-0.047897,-32.154877,21.577152,31.899513,22.97,0.31,0.56,35.14,31.838902,34.821006,1.61,41.9,4,6.96,117.11
353059486,1765370786817277,101225,12462600,-0.00841,0.00726,1.001285,0.046921,-0.018738,-0.055527,-32.154877,21.577152,31.899513,22.96,0.3,0.56,35.13,31.838902,34.821006,1.61,41.9,4,6.96,117.11
353111486,1765370786869277,101225,12462700,-0.00841,0.006894,1.000492,0.046921,0.00415,-0.00975,-30.904411,22.4762,31.379412,22.97,0.31,0.55,35.08,31.838913,34.82101,1.04,41.9,4,6.96,117.11
353115486,1765370786873277,101225,12462700,-0.008288,0.006772,1.000797,0.039291,0.00415,0.005508,-30.904411,22.4762,31.379412,22.97,0.31,0.54,35.09,31.838913,34.82101,1.04,41.9,4,6.96,117.11
353119486,1765370786877277,101225,12462700,-0.008166,0.006528,1.001346,0.024033,-0.003479,-0.01738,-30.904411,22.4762,31.379412,22.97,0.32,0.54,35.1,31.838913,34.82101,1.04,41.9,4,6.96,117.11
353123486,1765370786881277,101225,12462700,-0.008288,0.006528,1.001163,0.031662,-0.011108,-0.01738,-30.904411,22.4762,31.379412,22.97,0.32,0.53,35.1,31.838913,34.82101,1.04,41.9,4,6.96,117.11
353187486,1765370786945277,101225,12462700,-0.008716,0.006345,0.999454,0.031662,0.01178,-0.063156,-30.904411,22.4762,31.379412,22.98,0.4,0.48,35.2,31.838913,34.82101,1.04,41.9,4,6.96,117.11
353191486,1765370786949277,101225,12462700,-0.008777,0.006406,0.999881,0.039291,0.01178,-0.047897,-30.904411,22.4762,31.379412,22.97,0.4,0.48,35.21,31.838913,34.82101,1.04,41.9,4,6.96,117.11
353195486,1765370786953277,101225,12462700,-0.008777,0.006589,1.000553,0.039291,0.027039,-0.025009,-30.904411,22.4762,31.379412,22.97,0.41,0.48,35.21,31.838913,34.82101,1.04,41.9,4,6.96,117.11
353199486,1765370786957277,101225,12462700,-0.008838,0.007016,1.00098,0.031662,0.01178,-0.01738,-30.904411,22.4762,31.379412,22.97,0.41,0.47,35.22,31.838913,34.82101,1.04,41.9,4,6.96,117.11
353251486,1765370787009277,101225,12462700,-0.00719,0.006772,1.001712,0.008774,-0.026367,-0.032639,-32.869431,22.296391,30.859312,22.96,0.39,0.49,35.19,31.838913,34.82101,1.04,42.2,4,6.97,117.11
353255486,1765370787013277,101225,12462700,-0.007312,0.006772,1.001407,-0.014114,-0.041626,-0.040268,-32.869431,22.296391,30.859312,22.96,0.38,0.49,35.18,31.838913,34.82101,1.04,42.2,4,6.97,117.11
353259486,1765370787017277,101225,12462700,-0.007617,0.006955,1.001041,-0.006485,-0.041626,-0.055527,-32.869431,22.296391,30.859312,22.97,0.38,0.49,35.17,31.838913,34.82101,1.04,42.2,4,6.97,117.11
353263486,1765370787021277,101225,12462700,-0.007617,0.007016,1.000919,0.008774,-0.049255,-0.055527,-32.869431,22.296391,30.859312,22.97,0.37,0.49,35.16,31.838913,34.82101,1.04,42.2,4,6.97,117.11
353315486,1765370787073277,101225,12462700,-0.007617,0.006894,1.000431,0.05455,-0.011108,-0.01738,-32.869431,22.296391,30.859312,22.96,0.33,0.51,35.08,31.838913,34.82101,1.04,42.2,4,6.97,117.11
353319486,1765370787077277,101225,12462700,-0.007251,0.006772,1.000187,0.05455,-0.018738,-0.00975,-32.869431,22.296391,30.859312,22.96,0.33,0.51,35.07,31.838913,34.82101,1.04,42.2,4,6.97,117.11
353323486,1765370787081277,101225,12462700,-0.007129,0.00665,0.999515,0.046921,-0.018738,-0.00975,-32.869431,22.296391,30.859312,22.96,0.32,0.51,35.07,31.838913,34.82101,1.04,42.2,4,6.97,117.11
353327486,1765370787085277,101225,12462700,-0.006946,0.006955,0.998905,0.039291,-0.026367,-0.00975,-32.869431,22.296391,30.859312,22.96,0.32,0.51,35.06,31.838913,34.82101,1.04,42.2,4,6.97,117.11
353391486,1765370787149277,101225,12462700,-0.008166,0.007077,1.000248,0.031662,-0.064514,-0.025009,-32.869431,22.296391,30.859312,22.95,0.3,0.52,34.97,31.838913,34.82101,1.04,42.2,4,6.97,117.11
353395486,1765370787153277,101225,12462700,-0.007678,0.007016,0.999942,0.039291,-0.056885,-0.025009,-32.869431,22.296391,30.859312,22.95,0.3,0.52,34.96,31.838913,34.82101,1.04,42.2,4,6.97,117.11
353399486,1765370787157277,101225,12462700,-0.007617,0.006955,0.999698,0.046921,-0.072144,-0.032639,-32.869431,22.296391,30.859312,22.95,0.3,0.52,34.96,31.838913,34.82101,1.04,42.2,4,6.97,117.11
353403486,1765370787161277,101225,12462700,-0.007556,0.007077,0.999881,0.046921,-0.079773,-0.025009,-32.869431,22.296391,30.859312,22.96,0.3,0.52,34.95,31.838913,34.82101,1.04,42.2,4,6.97,117.11
353455486,1765370787213277,101225,12462700,-0.007739,0.00665,1.000736,0.069809,-0.079773,-0.047897,-32.869431,22.296391,30.859312,22.94,0.28,0.52,34.89,31.838913,34.82101,1.04,42.2,4,6.97,117.11
353459486,1765370787217277,101225,12462700,-0.007983,0.006528,1.000248,0.05455,-0.079773,-0.047897,-32.869431,22.296391,30.859312,22.94,0.28,0.52,34.88,31.838913,34.82101,1.04,42.2,4,6.97,117.11
353463486,1765370787221277,101225,12462700,-0.007861,0.006162,1.001224,0.024033,-0.095032,-0.055527,-32.869431,22.296391,30.859312,22.94,0.28,0.52,34.88,31.838913,34.82101,1.04,42.2,4,6.97,117.11
353467486,1765370787225277,101225,12462700,-0.007739,0.006467,1.001407,0.031662,-0.102661,-0.047897,-32.869431,22.296391,30.859312,22.94,0.28,0.52,34.88,31.838913,34.82101,1.04,42.2,4,6.97,117.11
353523486,1765370787281277,101225,12462700,-0.009387,0.006345,1.001102,0.123215,-0.133179,-0.002121,-32.154877,23.375248,31.899513,22.95,0.36,0.47,34.97,31.838913,34.82101,1.04,42.2,4,6.97,117.11
353527486,1765370787285277,101225,12462700,-0.00957,0.006345,1.002262,0.123215,-0.156067,-0.002121,-32.154877,23.375248,31.899513,22.95,0.37,0.47,34.98,31.838913,34.82101,1.04,42.2,4,6.97,117.11
353531486,1765370787289277,101225,12462700,-0.009204,0.006345,1.001651,0.130844,-0.194214,-0.01738,-32.154877,23.375248,31.899513,22.95,0.37,0.47,34.99,31.838913,34.82101,1.04,42.2,4,6.97,117.11
353535486,1765370787293277,101225,12462700,-0.008594,0.006833,0.999637,0.153732,-0.194214,-0.002121,-32.154877,23.375248,31.899513,22.96,0.37,0.47,34.99,31.838913,34.82101,1.04,42.2,4,6.97,117.11
353587486,1765370787345277,101225,12462700,-0.009082,0.006345,0.999515,0.008774,-0.041626,0.020767,-32.154877,23.375248,31.899513,22.94,0.43,0.43,35.08,31.838913,34.82101,1.04,42.2,4,6.97,117.11
353591486,1765370787349277,101225,12462700,-0.00896,0.006284,0.99982,0.031662,-0.049255,0.005508,-32.154877,23.375248,31.899513,22.94,0.43,0.43,35.08,31.838913,34.82101,1.04,42.2,4,6.97,117.11
353595486,1765370787353277,101225,12462700,-0.009021,0.00665,0.999576,0.046921,-0.026367,0.028397,-32.154877,23.375248,31.899513,22.94,0.43,0.43,35.09,31.838913,34.82101,1.04,42.2,4,6.97,117.11
353599486,1765370787357277,101225,12462700,-0.00896,0.00665,0.999637,0.046921,-0.018738,0.028397,-32.333515,22.835821,31.726147,22.94,0.43,0.43,35.09,31.838913,34.82101,1.04,42.2,4,6.97,117.11
353663486,1765370787421277,101225,12462700,-0.007556,0.007016,1.001102,0.031662,-0.033997,-0.01738,-32.333515,22.835821,31.726147,22.96,0.44,0.43,35.1,31.838913,34.82101,1.04,42.2,4,6.97,117.11
353667486,1765370787425277,101225,12462700,-0.007556,0.006894,1.000309,0.024033,-0.026367,-0.01738,-32.333515,22.835821,31.726147,22.96,0.44,0.43,35.1,31.838913,34.82101,1.04,42.2,4,6.97,117.11
353671486,1765370787429277,101225,12462700,-0.007678,0.00665,1.00037,0.031662,-0.011108,-0.00975,-32.333515,22.835821,31.726147,22.96,0.44,0.43,35.1,31.838913,34.82101,1.04,42.2,4,6.97,117.11
353675486,1765370787433277,101225,12462700,-0.008044,0.006406,1.000003,0.008774,-0.026367,-0.00975,-32.333515,22.835821,31.726147,22.96,0.44,0.43,35.1,31.838913,34.82101,1.04,42.2,4,6.97,117.11
353727486,1765370787485277,101225,12462700,-0.007861,0.006406,1.000858,0.024033,-0.018738,-0.00975,-31.618963,21.756964,31.379412,22.94,0.42,0.43,35.09,31.838913,34.82101,1.04,42.2,4,6.97,117.11
353731486,1765370787489277,101225,12462700,-0.007922,0.00665,1.000431,0.039291,-0.026367,-0.002121,-31.618963,21.756964,31.379412,22.94,0.42,0.43,35.09,31.838913,34.82101,1.04,42.2,4,6.97,117.11
353735486,1765370787493277,101225,12462700,-0.007922,0.006894,1.000187,0.031662,-0.003479,0.020767,-31.618963,21.756964,31.379412,22.94,0.42,0.44,35.09,31.838913,34.82101,1.04,42.2,4,6.97,117.11
353739486,1765370787497277,101225,12462700,-0.008166,0.006833,1.000431,0.016403,-0.018738,0.005508,-31.618963,21.756964,31.379412,22.94,0.41,0.44,35.08,31.838913,34.82101,1.04,42.2,4,6.97,117.11
353791486,1765370787549277,101225,12462700,-0.007739,0.006833,1.000126,0.046921,-0.026367,0.005508,-31.618963,21.756964,31.379412,22.94,0.38,0.46,35.03,31.838913,34.82101,1.04,42.2,4,6.97,117.11
353795486,1765370787553277,101225,12462700,-0.008105,0.006955,0.999942,0.06218,-0.026367,-0.002121,-31.618963,21.756964,31.379412,22.95,0.37,0.46,35.03,31.838913,34.82101,1.04,42.2,4,6.97,117.11
353799486,1765370787557277,101225,12462700,-0.008532,0.007199,1.000003,0.05455,-0.018738,0.020767,-31.618963,21.756964,31.379412,22.94,0.37,0.46,35.02,31.838913,34.82101,1.04,42.2,4,6.97,117.11
353803486,1765370787561277,101225,12462700,-0.008471,0.007138,1.000126,0.05455,-0.018738,0.028397,-31.618963,21.756964,31.379412,22.95,0.37,0.47,35.02,31.838913,34.82101,1.04,42.2,4,6.97,117.11
353867486,1765370787625277,101225,12462700,-0.007922,0.007077,0.999698,0.031662,0.00415,-0.002121,-31.97624,22.4762,31.379412,22.95,0.36,0.48,34.99,31.838913,34.82101,1.04,42.2,4,6.97,117.11
353871486,1765370787629277,101225,12462700,-0.007983,0.007688,0.999698,0.008774,0.00415,0.005508,-31.97624,22.4762,31.379412,22.96,0.37,0.48,34.99,31.838913,34.82101,1.04,42.2,4,6.97,117.11
353875486,1765370787633277,101225,12462700,-0.008105,0.007749,0.999515,0.008774,-0.018738,0.013138,-31.97624,22.4762,31.379412,22.96,0.37,0.48,34.99,31.838913,34.82101,1.04,42.2,4,6.97,117.11
353879486,1765370787637277,101225,12462700,-0.008105,0.007688,0.999698,0.008774,-0.011108,-0.002121,-31.97624,22.4762,31.379412,22.95,0.37,0.48,34.99,31.838913,34.82101,1.04,42.2,4,6.97,117.11
353931486,1765370787689277,101225,12462700,-0.008471,0.007199,1.000003,0.008774,-0.003479,0.013138,-31.97624,22.4762,31.379412,22.95,0.39,0.47,35.0,31.838913,34.82101,1.04,42.2,4,6.97,117.11
353935486,1765370787693277,101225,12462700,-0.008532,0.007321,1.000309,0.008774,-0.018738,0.013138,-31.97624,22.4762,31.379412,22.96,0.39,0.47,35.0,31.838913,34.82101,1.04,42.2,4,6.97,117.11
353939486,1765370787697277,101225,12462700,-0.008471,0.007199,1.000614,0.008774,-0.011108,0.020767,-31.97624,22.4762,31.379412,22.95,0.39,0.47,35.0,31.838913,34.82101,1.04,42.2,4,6.97,117.11
353943486,1765370787701277,101225,12462700,-0.00841,0.007199,1.00037,0.008774,-0.003479,0.028397,-31.97624,22.4762,31.379412,22.96,0.39,0.47,35.0,31.838913,34.82101,1.04,42.2,4,6.97,117.11
353999486,1765370787757277,101225,12462700,-0.007922,0.006284,1.001163,0.069809,-0.003479,-0.032639,-31.97624,22.4762,31.379412,22.95,0.39,0.46,35.0,31.838913,34.82101,1.04,42.2,4,6.97,117.11
354003486,1765370787761277,101225,12462700,-0.007983,0.006162,1.001041,0.06218,0.00415,-0.00975,-31.97624,22.4762,31.379412,22.96,0.39,0.46,35.0,31.838913,34.82101,1.04,42.2,4,6.97,117.11
354007486,1765370787765277,101225,12462700,-0.008288,0.006284,1.001163,0.06218,-0.003479,-0.032639,-31.97624,22.4762,31.379412,22.96,0.39,0.46,35.0,31.838913,34.82101,1.04,42.2,4,6.97,117.11
354011486,1765370787769277,101225,12462700,-0.008044,0.006345,1.00098,0.069809,-0.003479,-0.032639,-31.97624,22.4762,31.379412,22.95,0.39,0.46,35.0,31.838913,34.82101,1.04,42.2,4,6.97,117.11
354071486,1765370787829277,101225,12462700,-0.007434,0.007382,0.999149,-0.006485,0.019409,-0.032639,-31.97624,22.4762,31.379412,22.95,0.4,0.45,35.01,31.838913,34.82101,1.04,42.2,4,6.97,117.11
354075486,1765370787833277,101225,12462700,-0.007434,0.007199,0.99921,-0.029373,0.019409,-0.01738,-31.97624,22.4762,31.379412,22.95,0.4,0.45,35.01,31.838913,34.82101,1.04,42.2,4,6.97,117.11
354079486,1765370787837277,101225,12462700,-0.007556,0.007321,0.999881,-0.037003,0.027039,-0.00975,-31.97624,22.4762,31.379412,22.95,0.4,0.45,35.01,31.838913,34.82101,1.04,42.2,4,6.97,117.11
354083486,1765370787841277,101225,12462700,-0.007983,0.007138,0.999576,-0.037003,0.027039,-0.00975,-31.97624,22.4762,31.379412,22.95,0.4,0.45,35.01,31.838913,34.82101,1.04,42.2,4,6.97,117.11
354139486,1765370787897277,101225,12462800,-0.007373,0.006772,1.001041,-0.06752,0.027039,-0.01738,-32.154877,22.656012,32.246246,22.94,0.4,0.44,35.02,31.838911,34.82101,2.59,42.2,4,6.97,117.11
354143486,1765370787901277,101225,12462800,-0.007739,0.006833,1.00098,-0.052261,0.027039,-0.00975,-32.154877,22.656012,32.246246,22.94,0.4,0.44,35.02,31.838911,34.82101,2.59,42.2,4,6.97,117.11
354147486,1765370787905277,101225,12462800,-0.007922,0.007138,1.000858,-0.044632,0.034668,-0.032639,-32.154877,22.656012,32.246246,22.94,0.4,0.44,35.02,31.838911,34.82101,2.59,42.2,4,6.97,117.11
354151486,1765370787909277,101225,12462800,-0.007983,0.007199,1.000431,-0.059891,0.034668,-0.01738,-32.154877,22.656012,32.246246,22.94,0.41,0.44,35.02,31.838911,34.82101,2.59,42.2,4,6.97,117.11
354203486,1765370787961277,101225,12462800,-0.00719,0.006711,1.001102,0.001144,0.042297,0.013138,-32.154877,22.656012,32.246246,22.94,0.41,0.43,35.03,31.838911,34.82101,2.59,42.2,4,6.97,117.11
354207486,1765370787965277,101225,12462800,-0.007312,0.006955,1.00098,0.001144,0.01178,-0.002121,-32.154877,22.656012,32.246246,22.94,0.41,0.43,35.03,31.838911,34.82101,2.59,42.2,4,6.97,117.11
354211486,1765370787969277,101225,12462800,-0.007495,0.006894,1.000553,0.008774,0.019409,-0.00975,-32.154877,22.656012,32.246246,22.94,0.41,0.43,35.03,31.838911,34.82101,2.59,42.2,4,6.98,117.11
354215486,1765370787973277,101225,12462800,-0.0078,0.006772,1.000736,0.016403,0.01178,-0.025009,-32.154877,22.656012,32.246246,22.94,0.41,0.43,35.03,31.838911,34.82101,2.59,42.2,4,6.98,117.11
354279486,1765370788037277,101225,12462800,-0.007678,0.007321,1.000492,0.046921,0.01178,-0.002121,-31.618963,21.756964,32.07288,22.94,0.37,0.45,34.98,31.838911,34.82101,2.59,42.2,4,6.98,117.11
354283486,1765370788041277,101225,12462800,-0.007983,0.007321,1.000126,0.05455,0.01178,-0.00975,-31.618963,21.756964,32.07288,22.94,0.37,0.45,34.97,31.838911,34.82101,2.59,42.2,4,6.98,117.11
354287486,1765370788045277,101225,12462800,-0.007983,0.007199,1.000126,0.05455,0.034668,-0.01738,-31.618963,21.756964,32.07288,22.94,0.37,0.45,34.97,31.838911,34.82101,2.59,42.2,4,6.98,117.11
354291486,1765370788049277,101225,12462800,-0.008166,0.007382,0.999881,0.06218,0.027039,-0.00975,-31.618963,21.756964,32.07288,22.94,0.37,0.46,34.97,31.838911,34.82101,2.59,42.2,4,6.98,117.11
354343486,1765370788101277,101225,12462800,-0.008166,0.007321,1.000064,-0.021744,0.065186,0.020767,-31.618963,21.756964,32.07288,22.94,0.36,0.47,34.93,31.838911,34.82101,2.59,42.2,4,6.98,117.11
354347486,1765370788105277,101225,12462800,-0.00841,0.00726,1.000126,-0.014114,0.057556,0.013138,-31.618963,21.756964,32.07288,22.94,0.36,0.47,34.93,31.838911,34.82101,2.59,42.2,4,6.98,117.11
354351486,1765370788109277,101225,12462800,-0.008288,0.006894,1.000187,-0.014114,0.049927,0.005508,-33.048069,22.835821,31.032679,22.94,0.36,0.47,34.92,31.838911,34.82101,2.59,42.2,4,6.98,117.11
354355486,1765370788113277,101225,12462800,-0.00841,0.006955,1.000919,-0.021744,0.057556,-0.00975,-33.048069,22.835821,31.032679,22.94,0.36,0.47,34.92,31.838911,34.82101,2.59,42.2,4,6.98,117.11
354407486,1765370788165277,101225,12462800,-0.008166,0.006406,1.000553,0.05455,0.019409,-0.040268,-33.048069,22.835821,31.032679,22.92,0.35,0.48,34.9,31.838911,34.82101,2.59,42.2,4,6.98,117.11
354411486,1765370788169277,101225,12462800,-0.008044,0.006528,1.000431,0.046921,0.027039,-0.055527,-33.048069,22.835821,31.032679,22.92,0.35,0.48,34.9,31.838911,34.82101,2.59,42.2,4,6.98,117.11
354415486,1765370788173277,101225,12462800,-0.007983,0.006589,0.999942,0.039291,0.042297,-0.040268,-33.048069,22.835821,31.032679,22.93,0.35,0.49,34.89,31.838911,34.82101,2.59,42.2,4,6.98,117.11
354419486,1765370788177277,101225,12462800,-0.008044,0.00665,0.999759,0.05455,0.042297,-0.025009,-33.048069,22.835821,31.032679,22.93,0.35,0.49,34.89,31.838911,34.82101,2.59,42.2,4,6.98,117.11
354471486,1765370788229277,101225,12462800,-0.008471,0.007138,1.000309,0.085068,0.027039,-0.002121,-33.048069,22.835821,31.032679,22.93,0.35,0.49,34.87,31.838911,34.82101,2.59,42.2,4,6.98,117.11
354475486,1765370788233277,101225,12462800,-0.008471,0.007443,0.999942,0.085068,0.027039,-0.00975,-33.226707,21.936773,31.899513,22.93,0.34,0.5,34.86,31.838911,34.82101,2.59,42.2,4,6.98,117.11
354479486,1765370788237277,101225,12462800,-0.008288,0.006955,1.000492,0.092697,0.034668,-0.00975,-33.226707,21.936773,31.899513,22.93,0.34,0.5,34.85,31.838911,34.82101,2.59,42.2,4,6.98,117.11
354483486,1765370788241277,101225,12462800,-0.008349,0.007138,1.000553,0.100326,0.027039,-0.040268,-33.226707,21.936773,31.899513,22.93,0.33,0.5,34.84,31.838911,34.82101,2.59,42.2,4,6.98,117.11
354547486,1765370788305277,101225,12462800,-0.007312,0.00726,1.000431,0.008774,0.019409,-0.025009,-33.226707,21.936773,31.899513,22.93,0.29,0.54,34.7,31.838911,34.82101,2.59,42.2,4,6.98,117.11
354551486,1765370788309277,101225,12462800,-0.007556,0.007138,1.000553,0.016403,0.034668,0.028397,-33.226707,21.936773,31.899513,22.93,0.28,0.54,34.69,31.838911,34.82101,2.59,42.2,4,6.98,117.11
354555486,1765370788313277,101225,12462800,-0.007678,0.007077,1.000064,-0.006485,0.042297,0.013138,-33.226707,21.936773,31.899513,22.93,0.28,0.54,34.69,31.838911,34.82101,2.59,42.2,4,6.98,117.11
354559486,1765370788317277,101225,12462800,-0.007983,0.007077,0.99982,-0.014114,0.019409,0.020767,-33.226707,21.936773,31.899513,22.93,0.28,0.54,34.68,31.838911,34.82101,2.59,42.2,4,6.98,117.11
354611486,1765370788369277,101225,12462800,-0.007495,0.007016,0.999942,0.024033,0.00415,0.028397,-33.226707,21.936773,31.899513,22.93,0.25,0.56,34.58,31.838911,34.82101,2.59,42.2,4,6.98,117.11
354615486,1765370788373277,101225,12462800,-0.007434,0.006833,1.00037,0.016403,-0.003479,0.020767,-33.226707,21.936773,31.899513,22.93,0.25,0.56,34.57,31.838911,34.82101,2.59,42.2,4,6.98,117.11
354619486,1765370788377277,101225,12462800,-0.007556,0.006833,1.000736,0.001144,0.00415,0.013138,-33.226707,21.936773,31.899513,22.93,0.24,0.56,34.57,31.838911,34.82101,2.59,42.2,4,6.98,117.11
354623486,1765370788381277,101225,12462800,-0.007495,0.007077,1.000614,0.001144,-0.003479,0.005508,-33.226707,21.936773,31.899513,22.93,0.24,0.56,34.56,31.838911,34.82101,2.59,42.2,4,6.98,117.11
354679486,1765370788437277,101225,12462800,-0.007129,0.007077,1.000126,0.024033,0.00415,0.005508,-33.226707,21.936773,31.899513,22.93,0.23,0.57,34.47,31.838911,34.82101,2.59,42.2,4,6.98,117.11
354683486,1765370788441277,101225,12462800,-0.007007,0.006772,1.000187,0.039291,0.01178,-0.002121,-33.226707,21.936773,31.899513,22.93,0.23,0.56,34.46,31.838911,34.82101,2.59,42.2,4,6.98,117.11
354687486,1765370788445277,101225,12462800,-0.007312,0.00665,0.999576,0.05455,0.019409,0.013138,-33.226707,21.936773,31.899513,22.93,0.23,0.56,34.45,31.838911,34.82101,2.59,42.2,4,6.98,117.11
354691486,1765370788449277,101225,12462800,-0.007312,0.00665,0.999698,0.06218,0.01178,0.020767,-33.226707,21.936773,31.899513,22.93,0.23,0.56,34.45,31.838911,34.82101,2.59,42.2,4,6.98,117.11
354755486,1765370788513277,101225,12462800,-0.007861,0.006955,0.999454,-0.029373,-0.018738,-0.00975,-31.261686,22.835821,31.032679,22.92,0.32,0.49,34.5,31.838911,34.82101,2.59,42.2,4,6.98,117.11
354759486,1765370788517277,101225,12462800,-0.007922,0.007077,0.999393,-0.006485,-0.026367,0.005508,-31.261686,22.835821,31.032679,22.92,0.33,0.49,34.51,31.838911,34.82101,2.59,42.2,4,6.98,117.11
354763486,1765370788521277,101225,12462800,-0.007983,0.007077,0.999454,-0.014114,-0.018738,0.005508,-31.261686,22.835821,31.032679,22.93,0.34,0.48,34.52,31.838911,34.82101,2.59,42.2,4,6.98,117.11
354767486,1765370788525277,101225,12462800,-0.007861,0.006955,0.999088,-0.014114,-0.003479,0.020767,-31.261686,22.835821,31.032679,22.93,0.35,0.48,34.53,31.838911,34.82101,2.59,42.2,4,6.98,117.11
354819486,1765370788577277,101225,12462800,-0.007739,0.007077,1.000187,0.016403,-0.003479,-0.025009,-31.261686,22.835821,31.032679,22.91,0.44,0.41,34.67,31.838911,34.82101,2.59,42.2,4,6.98,117.11
354823486,1765370788581277,101225,12462800,-0.007861,0.007382,1.000003,0.024033,0.00415,-0.040268,-31.261686,22.835821,31.032679,22.91,0.44,0.41,34.68,31.838911,34.82101,2.59,42.2,4,6.98,117.11
354827486,1765370788585277,101225,12462800,-0.007739,0.007443,1.000248,0.031662,0.01178,-0.047897,-31.261686,22.835821,31.032679,22.91,0.45,0.41,34.69,31.838911,34.82101,2.59,42.2,4,6.98,117.11
354831486,1765370788589277,101225,12462800,-0.007678,0.007443,1.00037,0.031662,0.019409,-0.01738,-31.261686,22.835821,31.032679,22.91,0.46,0.4,34.7,31.838911,34.82101,2.59,42.2,4,6.98,117.11
354883486,1765370788641277,101225,12462800,-0.006823,0.006345,1.001102,0.024033,0.042297,-0.01738,-33.405346,22.4762,31.726147,22.91,0.43,0.41,34.68,31.838911,34.82101,2.59,42.2,4,6.98,117.11
354887486,1765370788645277,101225,12462800,-0.006823,0.006345,1.001407,0.024033,0.034668,-0.002121,-33.405346,22.4762,31.726147,22.92,0.42,0.42,34.68,31.838911,34.82101,2.59,42.2,4,6.98,117.11
354891486,1765370788649277,101225,12462800,-0.006946,0.006406,1.001712,0.031662,0.027039,-0.01738,-33.405346,22.4762,31.726147,22.92,0.42,0.42,34.67,31.838911,34.82101,2.59,42.2,4,6.98,117.11
354895486,1765370788653277,101225,12462800,-0.007068,0.006467,1.001224,0.031662,0.027039,-0.00975,-33.405346,22.4762,31.726147,22.92,0.41,0.42,34.66,31.838911,34.82101,2.59,42.2,4,6.98,117.11
354947486,1765370788705277,101225,12462800,-0.007617,0.006772,1.000614,0.077438,0.019409,-0.01738,-33.405346,22.4762,31.726147,22.91,0.37,0.45,34.6,31.838911,34.82101,2.59,42.2,4,6.98,117.11
354951486,1765370788709277,101225,12462800,-0.007495,0.006833,1.000553,0.085068,0.00415,-0.01738,-33.405346,22.4762,31.726147,22.91,0.37,0.45,34.59,31.838911,34.82101,2.59,42.2,4,6.98,117.11
354955486,1765370788713277,101225,12462800,-0.007434,0.007199,1.000431,0.069809,0.01178,-0.025009,-33.405346,22.4762,31.726147,22.91,0.36,0.45,34.59,31.838911,34.82101,2.59,42.2,4,6.98,117.11
354959486,1765370788717277,101225,12462800,-0.007434,0.006894,1.000064,0.069809,0.01178,-0.025009,-33.405346,22.4762,31.726147,22.91,0.36,0.45,34.58,31.838911,34.82101,2.59,42.2,4,6.98,117.11
355023486,1765370788781277,101225,12462800,-0.006701,0.007321,0.999637,0.024033,0.019409,-0.025009,-33.048069,21.037724,31.726147,22.91,0.27,0.52,34.4,31.838911,34.82101,2.59,42.2,4,6.98,117.11
355027486,1765370788785277,101225,12462800,-0.006946,0.007138,0.99982,0.024033,0.019409,-0.032639,-33.048069,21.037724,31.726147,22.91,0.27,0.52,34.39,31.838911,34.82101,2.59,42.2,4,6.98,117.11
355031486,1765370788789277,101225,12462800,-0.007129,0.00726,1.000187,0.016403,0.00415,-0.025009,-33.048069,21.037724,31.726147,22.91,0.26,0.52,34.38,31.838911,34.82101,2.59,42.2,4,6.98,117.11
355035486,1765370788793277,101225,12462800,-0.007373,0.007321,1.000003,0.024033,-0.003479,-0.040268,-33.048069,21.037724,31.726147,22.91,0.26,0.53,34.36,31.838911,34.82101,2.59,42.2,4,6.98,117.11
355087486,1765370788845277,101225,12462800,-0.007434,0.00726,1.000858,0.001144,0.00415,-0.00975,-33.048069,21.037724,31.726147,22.92,0.2,0.56,34.21,31.838911,34.82101,2.59,42.2,4,6.98,117.11
355091486,1765370788849277,101225,12462800,-0.007739,0.007138,1.000736,0.008774,0.019409,-0.01738,-33.048069,21.037724,31.726147,22.92,0.2,0.56,34.2,31.838911,34.82101,2.59,42.2,4,6.98,117.11
355095486,1765370788853277,101225,12462800,-0.007678,0.007199,1.000919,-0.006485,0.019409,-0.025009,-33.048069,21.037724,31.726147,22.92,0.2,0.56,34.19,31.838911,34.82101,2.59,42.2,4,6.98,117.11
355099486,1765370788857277,101225,12462800,-0.007739,0.00726,1.001041,0.001144,0.027039,-0.040268,-32.512154,23.734869,30.512577,22.91,0.2,0.56,34.19,31.838911,34.82101,2.59,42.2,4,6.98,117.11
355155486,1765370788913277,101225,12462900,-0.007556,0.00781,1.00098,-0.014114,0.027039,-0.047897,-32.512154,23.734869,30.512577,22.93,0.36,0.46,34.37,31.838904,34.821008,3.07,42.2,4,6.98,160.41
355159486,1765370788917277,101225,12462900,-0.007983,0.007626,1.000675,-0.014114,0.019409,-0.040268,-32.512154,23.734869,30.512577,22.93,0.37,0.45,34.38,31.838904,34.821008,3.07,42.2,4,6.98,160.41
355163486,1765370788921277,101225,12462900,-0.007983,0.007199,1.000553,-0.006485,-0.003479,-0.025009,-32.512154,23.734869,30.512577,22.93,0.38,0.45,34.4,31.838904,34.821008,3.07,42.2,4,6.98,160.41
355167486,1765370788925277,101225,12462900,-0.007861,0.007138,1.000187,0.001144,0.00415,-0.025009,-32.512154,23.734869,30.512577,22.93,0.39,0.44,34.41,31.838904,34.821008,3.07,42.2,4,6.98,160.41
355227486,1765370788985277,101225,12462900,-0.007922,0.00665,1.00037,0.031662,-0.003479,-0.040268,-32.512154,23.734869,30.512577,22.92,0.47,0.39,34.57,31.838904,34.821008,3.07,42.0,4,6.99,160.41
355231486,1765370788989277,101225,12462900,-0.007617,0.006894,1.000248,0.016403,-0.011108,-0.032639,-32.512154,23.734869,30.512577,22.92,0.48,0.38,34.58,31.838904,34.821008,3.07,42.0,4,6.99,160.41
355235486,1765370788993277,101225,12462900,-0.007495,0.007016,1.000492,0.024033,-0.018738,-0.040268,-32.512154,23.734869,30.512577,22.92,0.48,0.38,34.59,31.838904,34.821008,3.07,42.0,4,6.99,160.41
355239486,1765370788997277,101225,12462900,-0.007617,0.006772,1.000553,0.024033,-0.018738,-0.047897,-32.512154,23.734869,30.512577,22.92,0.49,0.38,34.6,31.838904,34.821008,3.07,42.0,4,6.99,160.41
355295486,1765370789053277,101225,12462900,-0.007434,0.006711,0.999881,0.024033,0.027039,0.020767,-32.512154,23.734869,30.512577,22.93,0.53,0.34,34.73,31.838904,34.821008,3.07,42.0,4,6.99,160.41
355299486,1765370789057277,101225,12462900,-0.007556,0.006528,0.999881,0.024033,0.027039,0.028397,-32.512154,23.734869,30.512577,22.93,0.54,0.34,34.74,31.838904,34.821008,3.07,42.0,4,6.99,160.41
355303486,1765370789061277,101225,12462900,-0.007617,0.006528,0.99982,0.008774,0.034668,-0.01738,-32.512154,23.734869,30.512577,22.93,0.54,0.34,34.74,31.838904,34.821008,3.07,42.0,4,6.99,160.41
355307486,1765370789065277,101225,12462900,-0.0078,0.00665,0.999881,0.001144,0.034668,-0.032639,-32.512154,23.734869,30.512577,22.93,0.54,0.34,34.75,31.838904,34.821008,3.07,42.0,4,6.99,160.41
355359486,1765370789117277,101225,12462900,-0.008471,0.006223,1.001896,-0.037003,0.027039,0.020767,-31.083048,21.577152,31.55278,22.93,0.54,0.34,34.83,31.838904,34.821008,3.07,42.0,4,6.99,160.41
355363486,1765370789121277,101225,12462900,-0.00841,0.006101,1.00214,-0.021744,0.01178,0.028397,-31.083048,21.577152,31.55278,22.93,0.53,0.34,34.83,31.838904,34.821008,3.07,42.0,4,6.99,160.41
355367486,1765370789125277,101225,12462900,-0.008471,0.006284,1.002018,-0.029373,0.00415,0.013138,-31.083048,21.577152,31.55278,22.94,0.53,0.35,34.83,31.838904,34.821008,3.07,42.0,4,6.99,160.41
355371486,1765370789129277,101225,12462900,-0.008471,0.006406,1.002323,-0.021744,-0.011108,0.013138,-31.083048,21.577152,31.55278,22.94,0.52,0.35,34.82,31.838904,34.821008,3.07,42.0,4,6.99,160.41
355435486,1765370789193277,101225,12462900,-0.007312,0.006345,1.001712,-0.021744,0.019409,0.020767,-31.083048,21.577152,31.55278,22.92,0.46,0.39,34.8,31.838904,34.821008,3.07,42.0,4,6.99,160.41
355439486,1765370789197277,101225,12462900,-0.007068,0.006345,1.00098,-0.014114,0.019409,0.028397,-31.083048,21.577152,31.55278,22.93,0.46,0.39,34.8,31.838904,34.821008,3.07,42.0,4,6.99,160.41
355443486,1765370789201277,101225,12462900,-0.007251,0.006406,1.00098,0.008774,0.027039,0.036026,-31.083048,21.577152,31.55278,22.93,0.46,0.39,34.8,31.838904,34.821008,3.07,42.0,4,6.99,160.41
355447486,1765370789205277,101225,12462900,-0.007312,0.006589,1.001041,0.024033,0.00415,0.020767,-31.083048,21.577152,31.55278,22.93,0.45,0.39,34.8,31.838904,34.821008,3.07,42.0,4,6.99,160.41
355499486,1765370789257277,101225,12462900,-0.007129,0.006589,1.001529,0.046921,-0.003479,-0.00975,-31.97624,21.037724,32.07288,22.94,0.39,0.43,34.73,31.838904,34.821008,3.07,42.0,4,6.99,160.41
355503486,1765370789261277,101225,12462900,-0.007068,0.00665,1.001468,0.039291,0.00415,-0.00975,-31.97624,21.037724,32.07288,22.93,0.38,0.43,34.72,31.838904,34.821008,3.07,42.0,4,6.99,160.41
355507486,1765370789265277,101225,12462900,-0.007007,0.006467,1.00159,0.031662,0.00415,-0.00975,-31.97624,21.037724,32.07288,22.93,0.38,0.44,34.71,31.838904,34.821008,3.07,42.0,4,6.99,160.41
355511486,1765370789269277,101225,12462900,-0.006762,0.006467,1.00159,0.039291,-0.003479,0.005508,-31.97624,21.037724,32.07288,22.93,0.37,0.44,34.7,31.838904,34.821008,3.07,42.0,4,6.99,160.41
355563486,1765370789321277,101225,12462900,-0.0078,0.00665,1.001224,-0.037003,-0.011108,-0.00975,-31.97624,21.037724,32.07288,22.93,0.3,0.48,34.58,31.838904,34.821008,3.07,42.0,4,6.99,160.41
355567486,1765370789325277,101225,12462900,-0.007922,0.006955,1.001102,-0.021744,-0.011108,-0.002121,-31.97624,21.037724,32.07288,22.93,0.3,0.49,34.57,31.838904,34.821008,3.07,42.0,4,6.99,160.41
355571486,1765370789329277,101225,12462900,-0.0078,0.006833,1.001163,0.001144,-0.003479,-0.002121,-31.97624,21.037724,32.07288,22.93,0.3,0.49,34.57,31.838904,34.821008,3.07,42.0,4,6.99,160.41
355575486,1765370789333277,101225,12462900,-0.007678,0.006772,1.001224,0.008774,-0.011108,-0.01738,-31.97624,21.037724,32.07288,22.93,0.29,0.49,34.56,31.838904,34.821008,3.07,42.0,4,6.99,160.41
355631486,1765370789389277,101225,12462900,-0.007922,0.007321,1.001468,0.069809,0.00415,-0.00975,-31.261686,22.116581,31.726147,22.93,0.32,0.48,34.55,31.838904,34.821008,3.07,42.0,4,6.99,160.41
355635486,1765370789393277,101225,12462900,-0.007861,0.007077,1.00159,0.069809,0.00415,-0.00975,-31.261686,22.116581,31.726147,22.93,0.33,0.48,34.56,31.838904,34.821008,3.07,42.0,4,6.99,160.41
355639486,1765370789397277,101225,12462900,-0.007861,0.007321,1.001835,0.085068,-0.003479,-0.002121,-31.261686,22.116581,31.726147,22.93,0.33,0.48,34.56,31.838904,34.821008,3.07,42.0,4,6.99,160.41
355643486,1765370789401277,101225,12462900,-0.008044,0.007565,1.001835,0.107956,-0.026367,0.013138,-31.261686,22.116581,31.726147,22.93,0.34,0.47,34.57,31.838904,34.821008,3.07,42.0,4,6.99,160.41
355703486,1765370789461277,101225,12462900,-0.007861,0.007749,1.000248,0.069809,0.01178,0.005508,-31.261686,22.116581,31.726147,22.93,0.4,0.44,34.63,31.838904,34.821008,3.07,42.0,4,6.99,160.41
355707486,1765370789465277,101225,12462900,-0.007739,0.007749,1.000797,0.05455,0.019409,0.020767,-31.261686,22.116581,31.726147,22.93,0.41,0.44,34.64,31.838904,34.821008,3.07,42.0,4,6.99,160.41
355711486,1765370789469277,101225,12462900,-0.007556,0.007749,1.000431,0.05455,0.01178,0.028397,-31.261686,22.116581,31.726147,22.93,0.41,0.44,34.64,31.838904,34.821008,3.07,42.0,4,6.99,160.41
355715486,1765370789473277,101225,12462900,-0.00719,0.007932,0.999759,0.046921,0.027039,0.036026,-31.261686,22.116581,31.726147,22.93,0.41,0.43,34.65,31.838904,34.821008,3.07,42.0,4,6.99,160.41
355771486,1765370789529277,101225,12462900,-0.00841,0.007443,1.001285,-0.044632,0.034668,-0.002121,-32.512154,21.936773,31.899513,22.93,0.39,0.46,34.6,31.838904,34.821008,3.07,42.0,4,6.99,160.41
355775486,1765370789533277,101225,12462900,-0.008349,0.00781,1.001224,-0.06752,0.019409,0.005508,-32.512154,21.936773,31.899513,22.93,0.39,0.46,34.6,31.838904,34.821008,3.07,42.0,4,6.99,160.41
355779486,1765370789537277,101225,12462900,-0.007983,0.007688,1.00098,-0.06752,0.027039,-0.00975,-32.512154,21.936773,31.899513,22.94,0.39,0.46,34.59,31.838904,34.821008,3.07,42.0,4,6.99,160.41
355783486,1765370789541277,101225,12462900,-0.0078,0.007443,1.001896,-0.07515,0.027039,-0.025009,-32.512154,21.936773,31.899513,22.94,0.39,0.47,34.59,31.838904,34.821008,3.07,42.0,4,6.99,160.41
355835486,1765370789593277,101225,12462900,-0.007983,0.007443,1.000797,-0.014114,0.01178,-0.032639,-32.512154,21.936773,31.899513,22.93,0.37,0.48,34.54,31.838904,34.821008,3.07,42.0,4,6.99,160.41
355839486,1765370789597277,101225,12462900,-0.008044,0.007321,1.001224,-0.014114,0.01178,-0.032639,-32.512154,21.936773,31.899513,22.94,0.37,0.49,34.53,31.838904,34.821008,3.07,42.0,4,6.99,160.41
355843486,1765370789601277,101225,12462900,-0.007922,0.007077,1.001651,0.001144,-0.011108,-0.002121,-32.512154,21.936773,31.899513,22.93,0.36,0.49,34.53,31.838904,34.821008,3.07,42.0,4,6.99,160.41
355847486,1765370789605277,101225,12462900,-0.007861,0.007077,1.000919,0.008774,-0.018738,-0.01738,-32.512154,21.936773,31.899513,22.93,0.36,0.49,34.52,31.838904,34.821008,3.07,42.0,4,6.99,160.41
355911486,1765370789669277,101225,12462900,-0.007861,0.006894,1.000797,0.05455,0.01178,0.036026,-32.512154,21.936773,31.899513,22.94,0.34,0.5,34.47,31.838904,34.821008,3.07,42.0,4,6.99,160.41
355915486,1765370789673277,101225,12462900,-0.007739,0.007077,1.00037,0.069809,0.01178,0.036026,-32.512154,21.936773,31.899513,22.94,0.34,0.5,34.47,31.838904,34.821008,3.07,42.0,4,6.99,160.41
355919486,1765370789677277,101225,12462900,-0.007434,0.007077,1.000553,0.069809,0.019409,0.013138,-32.512154,21.936773,31.899513,22.94,0.34,0.5,34.46,31.838904,34.821008,3.07,42.0,4,6.99,160.41
355923486,1765370789681277,101225,12462900,-0.0078,0.00726,0.999942,0.069809,0.00415,0.013138,-32.512154,21.936773,31.899513,22.94,0.34,0.5,34.46,31.838904,34.821008,3.07,42.0,4,6.99,160.41
355975486,1765370789733277,101225,12462900,-0.007129,0.007016,0.998966,0.024033,0.027039,-0.025009,-31.97624,23.914679,30.685946,22.94,0.33,0.5,34.42,31.838904,34.821008,3.07,42.0,4,6.99,160.41
355979486,1765370789737277,101225,12462900,-0.007007,0.006833,0.999088,0.008774,0.034668,-0.025009,-31.97624,23.914679,30.685946,22.93,0.35,0.49,34.44,31.838904,34.821008,3.07,42.0,4,6.99,160.41
355983486,1765370789741277,101225,12462900,-0.006946,0.007077,0.999576,-0.014114,0.049927,-0.01738,-31.97624,23.914679,30.685946,22.94,0.36,0.48,34.46,31.838904,34.821008,3.07,42.0,4,6.99,160.41
355987486,1765370789745277,101225,12462900,-0.006885,0.006894,0.999393,-0.029373,0.049927,-0.00975,-31.97624,23.914679,30.685946,22.93,0.37,0.47,34.47,31.838904,34.821008,3.07,42.0,4,6.99,160.41
356039486,1765370789797277,101225,12462900,-0.0078,0.007504,0.999881,-0.037003,0.01178,-0.00975,-31.97624,23.914679,30.685946,22.93,0.48,0.38,34.67,31.838904,34.821008,3.07,42.0,4,6.99,160.41
356043486,1765370789801277,101225,12462900,-0.007617,0.007504,0.999576,-0.021744,0.01178,-0.00975,-31.97624,23.914679,30.685946,22.93,0.49,0.38,34.68,31.838904,34.821008,3.07,42.0,4,6.99,160.41
356047486,1765370789805277,101225,12462900,-0.007678,0.007382,0.99982,0.001144,0.00415,-0.00975,-31.97624,23.914679,30.685946,22.93,0.5,0.37,34.7,31.838904,34.821008,3.07,42.0,4,6.99,160.41
356051486,1765370789809277,101225,12462900,-0.007739,0.007077,0.999637,-0.021744,-0.003479,-0.00975,-31.97624,23.914679,30.685946,22.93,0.5,0.37,34.71,31.838904,34.821008,3.07,42.0,4,6.99,160.41
356103486,1765370789861277,101225,12463000,-0.007556,0.006772,1.000187,0.031662,0.019409,0.005508,-31.97624,22.116581,32.419613,22.93,0.56,0.33,34.86,31.838893,34.821007,2.87,42.0,4,6.99,182.25
356107486,1765370789865277,101225,12463000,-0.007495,0.006711,1.00037,0.016403,0.027039,-0.01738,-31.97624,22.116581,32.419613,22.93,0.55,0.33,34.86,31.838893,34.821007,2.87,42.0,4,6.99,182.25
356111486,1765370789869277,101225,12463000,-0.007861,0.006833,1.000309,0.016403,0.00415,-0.025009,-31.97624,22.116581,32.419613,22.93,0.55,0.34,34.86,31.838893,34.821007,2.87,42.0,4,6.99,182.25
356115486,1765370789873277,101225,12463000,-0.007861,0.006955,1.000492,0.024033,-0.003479,-0.002121,-31.97624,22.116581,32.419613,22.92,0.54,0.34,34.85,31.838893,34.821007,2.87,42.0,4,6.99,182.25
356179486,1765370789937277,101225,12463000,-0.007129,0.007199,1.000797,0.001144,-0.003479,-0.00975,-31.97624,22.116581,32.419613,22.93,0.48,0.38,34.82,31.838893,34.821007,2.87,42.0,4,6.99,182.25
356183486,1765370789941277,101225,12463000,-0.007068,0.007565,1.000736,-0.006485,0.00415,-0.00975,-31.97624,22.116581,32.419613,22.93,0.48,0.38,34.81,31.838893,34.821007,2.87,42.0,4,6.99,182.25
356187486,1765370789945277,101225,12463000,-0.00719,0.007749,1.000492,0.001144,0.01178,-0.002121,-31.97624,22.116581,32.419613,22.93,0.48,0.38,34.81,31.838893,34.821007,2.87,42.0,4,6.99,182.25
356191486,1765370789949277,101225,12463000,-0.007434,0.008054,1.000675,0.001144,0.019409,0.005508,-31.97624,22.116581,32.419613,22.93,0.47,0.39,34.81,31.838893,34.821007,2.87,42.0,4,6.99,182.25
356243486,1765370790001277,101225,12463000,-0.007434,0.00726,1.00098,-0.052261,0.027039,-0.040268,-32.512154,23.015629,31.55278,22.92,0.46,0.4,34.81,31.838893,34.821007,2.87,41.5,4,7.01,182.25
356247486,1765370790005277,101225,12463000,-0.007495,0.006955,1.00098,-0.052261,0.019409,-0.01738,-32.512154,23.015629,31.55278,22.92,0.46,0.4,34.81,31.838893,34.821007,2.87,41.5,4,7.01,182.25
356251486,1765370790009277,101225,12463000,-0.007617,0.007382,1.001407,-0.059891,0.019409,-0.00975,-32.512154,23.015629,31.55278,22.92,0.46,0.4,34.81,31.838893,34.821007,2.87,41.5,4,7.01,182.25
356255486,1765370790013277,101225,12463000,-0.007373,0.007321,1.001651,-0.052261,0.019409,0.005508,-32.512154,23.015629,31.55278,22.92,0.47,0.4,34.81,31.838893,34.821007,2.87,41.5,4,7.01,182.25
356311486,1765370790069277,101225,12463000,-0.008288,0.006406,0.999698,0.024033,0.027039,-0.055527,-32.512154,23.015629,31.55278,22.93,0.46,0.4,34.85,31.838893,34.821007,2.87,41.5,4,7.01,182.25
356315486,1765370790073277,101225,12463000,-0.008227,0.00665,0.999515,0.046921,0.019409,-0.055527,-32.512154,23.015629,31.55278,22.93,0.46,0.4,34.85,31.838893,34.821007,2.87,41.5,4,7.01,182.25
356319486,1765370790077277,101225,12463000,-0.008044,0.006467,0.999271,0.05455,0.01178,-0.055527,-32.512154,23.015629,31.55278,22.93,0.46,0.4,34.85,31.838893,34.821007,2.87,41.5,4,7.01,182.25
356323486,1765370790081277,101225,12463000,-0.008105,0.006894,0.999271,0.06218,-0.003479,-0.032639,-32.512154,23.015629,31.55278,22.93,0.46,0.4,34.85,31.838893,34.821007,2.87,41.5,4,7.01,182.25
356387486,1765370790145277,101225,12463000,-0.008166,0.007077,1.000309,0.100326,-0.033997,0.020767,-32.690792,21.397343,31.032679,22.93,0.39,0.46,34.76,31.838893,34.821007,2.87,41.5,4,7.01,182.25
356391486,1765370790149277,101225,12463000,-0.008166,0.007199,1.000614,0.077438,-0.018738,0.020767,-32.690792,21.397343,31.032679,22.93,0.38,0.46,34.75,31.838893,34.821007,2.87,41.5,4,7.01,182.25
356395486,1765370790153277,101225,12463000,-0.008532,0.007077,1.000797,0.06218,-0.011108,0.020767,-32.690792,21.397343,31.032679,22.93,0.37,0.47,34.74,31.838893,34.821007,2.87,41.5,4,7.01,182.25
356399486,1765370790157277,101225,12463000,-0.008655,0.007321,1.000492,0.024033,-0.003479,0.020767,-32.690792,21.397343,31.032679,22.93,0.37,0.47,34.73,31.838893,34.821007,2.87,41.5,4,7.01,182.25
356451486,1765370790209277,101225,12463000,-0.007617,0.007016,1.001102,0.001144,0.034668,-0.025009,-32.690792,21.397343,31.032679,22.93,0.3,0.52,34.6,31.838893,34.821007,2.87,41.5,4,7.01,182.25
356455486,1765370790213277,101225,12463000,-0.007495,0.006833,1.000431,-0.006485,0.019409,-0.002121,-32.690792,21.397343,31.032679,22.92,0.3,0.52,34.59,31.838893,34.821007,2.87,41.5,4,7.01,182.25
356459486,1765370790217277,101225,12463000,-0.007373,0.006833,1.000309,-0.021744,0.01178,-0.025009,-32.690792,21.397343,31.032679,22.92,0.29,0.52,34.58,31.838893,34.821007,2.87,41.5,4,7.01,182.25
356463486,1765370790221277,101225,12463000,-0.007495,0.006894,1.000064,-0.014114,0.01178,-0.01738,-32.690792,21.397343,31.032679,22.92,0.29,0.52,34.57,31.838893,34.821007,2.87,41.5,4,7.01,182.25
356515486,1765370790273277,101225,12463000,-0.008105,0.006955,1.001773,0.008774,0.027039,-0.01738,-30.547132,21.397343,32.07288,22.93,0.33,0.49,34.58,31.838893,34.821007,2.87,41.5,4,7.01,182.25
356519486,1765370790277277,101225,12463000,-0.008227,0.007321,1.001957,0.001144,0.027039,-0.032639,-30.547132,21.397343,32.07288,22.92,0.33,0.49,34.59,31.838893,34.821007,2.87,41.5,4,7.01,182.25
356523486,1765370790281277,101225,12463000,-0.00841,0.007199,1.002201,0.008774,0.027039,-0.025009,-30.547132,21.397343,32.07288,22.92,0.34,0.49,34.59,31.838893,34.821007,2.87,41.5,4,7.01,182.25
356527486,1765370790285277,101225,12463000,-0.008471,0.007321,1.001835,0.016403,0.019409,-0.025009,-30.547132,21.397343,32.07288,22.92,0.34,0.49,34.59,31.838893,34.821007,2.87,41.5,4,7.01,182.25
356591486,1765370790349277,101225,12463000,-0.007556,0.007138,0.999271,0.092697,0.00415,-0.01738,-30.547132,21.397343,32.07288,22.93,0.39,0.46,34.63,31.838893,34.821007,2.87,41.5,4,7.01,182.25
356595486,1765370790353277,101225,12463000,-0.007556,0.007138,0.999576,0.085068,0.00415,-0.025009,-30.547132,21.397343,32.07288,22.93,0.39,0.46,34.63,31.838893,34.821007,2.87,41.5,4,7.01,182.25
356599486,1765370790357277,101225,12463000,-0.007434,0.007199,1.000064,0.069809,0.00415,-0.025009,-30.547132,21.397343,32.07288,22.93,0.39,0.46,34.64,31.838893,34.821007,2.87,41.5,4,7.01,182.25
356603486,1765370790361277,101225,12463000,-0.007312,0.007016,1.00037,0.05455,-0.003479,-0.002121,-31.797602,20.857916,31.55278,22.93,0.39,0.46,34.63,31.838893,34.821007,2.87,41.5,4,7.01,182.25
356655486,1765370790413277,101225,12463000,-0.008471,0.007077,0.999149,0.05455,-0.003479,-0.00975,-31.797602,20.857916,31.55278,22.93,0.32,0.5,34.51,31.838893,34.821007,2.87,41.5,4,7.01,182.25
356659486,1765370790417277,101225,12463000,-0.008471,0.007016,0.999515,0.046921,-0.011108,-0.002121,-31.797602,20.857916,31.55278,22.93,0.32,0.5,34.51,31.838893,34.821007,2.87,41.5,4,7.01,182.25
356663486,1765370790421277,101225,12463000,-0.008655,0.007138,0.999637,0.039291,-0.011108,0.005508,-31.797602,20.857916,31.55278,22.93,0.32,0.51,34.5,31.838893,34.821007,2.87,41.5,4,7.01,182.25
356667486,1765370790425277,101225,12463000,-0.008777,0.00726,0.999637,0.039291,-0.011108,-0.002121,-31.797602,20.857916,31.55278,22.93,0.31,0.51,34.49,31.838893,34.821007,2.87,41.5,4,7.01,182.25
356719486,1765370790477277,101225,12463000,-0.007678,0.006711,1.000126,0.016403,-0.003479,0.036026,-31.797602,20.857916,31.55278,22.93,0.27,0.54,34.39,31.838893,34.821007,2.87,41.5,4,7.01,182.25
356723486,1765370790481277,101225,12463000,-0.007678,0.00665,1.000248,0.024033,0.019409,0.043655,-31.797602,20.857916,31.55278,22.93,0.27,0.54,34.38,31.838893,34.821007,2.87,41.5,4,7.01,182.25
356727486,1765370790485277,101225,12463000,-0.007922,0.006589,1.000492,0.024033,0.00415,0.051285,-33.226707,22.656012,32.246246,22.93,0.27,0.54,34.38,31.838893,34.821007,2.87,41.5,4,7.01,182.25
356731486,1765370790489277,101225,12463000,-0.008166,0.006894,1.001163,0.024033,-0.011108,0.043655,-33.226707,22.656012,32.246246,22.93,0.27,0.54,34.38,31.838893,34.821007,2.87,41.5,4,7.01,182.25
356787486,1765370790545277,101225,12463000,-0.007373,0.007321,0.999271,0.039291,0.034668,0.005508,-33.226707,22.656012,32.246246,22.93,0.31,0.52,34.37,31.838893,34.821007,2.87,41.5,4,7.01,182.25
356791486,1765370790549277,101225,12463000,-0.007312,0.007138,0.99921,0.046921,0.027039,-0.002121,-33.226707,22.656012,32.246246,22.92,0.31,0.52,34.37,31.838893,34.821007,2.87,41.5,4,7.01,182.25
356795486,1765370790553277,101225,12463000,-0.007373,0.00726,0.999149,0.05455,0.027039,0.020767,-33.226707,22.656012,32.246246,22.93,0.31,0.52,34.37,31.838893,34.821007,2.87,41.5,4,7.01,182.25
356799486,1765370790557277,101225,12463000,-0.007556,0.00726,0.99921,0.039291,0.027039,0.020767,-33.226707,22.656012,32.246246,22.93,0.31,0.51,34.37,31.838893,34.821007,2.87,41.5,4,7.01,182.25
356859486,1765370790617277,101225,12463000,-0.00719,0.007077,1.000248,0.001144,-0.003479,-0.078415,-31.97624,24.274296,31.379412,22.93,0.36,0.48,34.41,31.838893,34.821007,2.87,41.5,4,7.01,182.25
356863486,1765370790621277,101225,12463000,-0.007068,0.007138,1.000431,-0.006485,-0.003479,-0.047897,-31.97624,24.274296,31.379412,22.93,0.38,0.47,34.43,31.838893,34.821007,2.87,41.5,4,7.01,182.25
356867486,1765370790625277,101225,12463000,-0.007129,0.007077,1.000797,-0.021744,-0.003479,-0.047897,-31.97624,24.274296,31.379412,22.93,0.39,0.46,34.45,31.838893,34.821007,2.87,41.5,4,7.01,182.25
356871486,1765370790629277,101225,12463000,-0.007434,0.007016,1.00098,-0.014114,0.00415,-0.047897,-31.97624,24.274296,31.379412,22.93,0.4,0.45,34.47,31.838893,34.821007,2.87,41.5,4,7.01,182.25
356927486,1765370790685277,101225,12463000,-0.007739,0.006589,1.000309,-0.014114,0.027039,-0.00975,-31.97624,24.274296,31.379412,22.93,0.53,0.34,34.71,31.838893,34.821007,2.87,41.5,4,7.01,182.25
356931486,1765370790689277,101225,12463000,-0.007678,0.007016,1.000919,-0.014114,0.034668,0.013138,-31.97624,24.274296,31.379412,22.93,0.54,0.34,34.73,31.838893,34.821007,2.87,41.5,4,7.01,182.25
356935486,1765370790693277,101225,12463000,-0.007983,0.006833,1.001041,-0.006485,0.034668,-0.002121,-31.97624,24.274296,31.379412,22.93,0.55,0.33,34.74,31.838893,34.821007,2.87,41.5,4,7.01,182.25
356939486,1765370790697277,101225,12463000,-0.008288,0.006772,1.001102,-0.006485,0.019409,-0.00975,-31.97624,24.274296,31.379412,22.93,0.55,0.33,34.76,31.838893,34.821007,2.87,41.5,4,7.01,182.25
356991486,1765370790749277,101225,12463000,-0.007922,0.006528,1.001285,0.039291,-0.011108,-0.01738,-33.583984,22.296391,30.859312,22.94,0.56,0.33,34.86,31.838893,34.821007,2.87,41.5,4,7.01,182.25
356995486,1765370790753277,101225,12463000,-0.0078,0.006589,1.001468,0.046921,-0.018738,-0.01738,-33.583984,22.296391,30.859312,22.94,0.55,0.34,34.85,31.838893,34.821007,2.87,41.5,4,7.01,182.25
356999486,1765370790757277,101225,12463000,-0.007434,0.006223,1.001529,0.046921,-0.018738,-0.032639,-33.583984,22.296391,30.859312,22.94,0.54,0.34,34.84,31.838893,34.821007,2.87,41.5,4,7.01,182.25
357003486,1765370790761277,101225,12463000,-0.007251,0.006345,1.001041,0.039291,-0.026367,-0.025009,-33.583984,22.296391,30.859312,22.93,0.53,0.35,34.83,31.838893,34.821007,2.87,41.5,4,7.01,182.25
357067486,1765370790825277,101225,12463000,-0.007861,0.007016,1.000248,0.008774,0.00415,0.036026,-33.583984,22.296391,30.859312,22.92,0.42,0.43,34.69,31.838893,34.821007,2.87,41.5,4,7.01,182.25
357071486,1765370790829277,101225,12463000,-0.007861,0.006894,1.000309,0.008774,0.00415,0.005508,-33.583984,22.296391,30.859312,22.92,0.41,0.43,34.68,31.838893,34.821007,2.87,41.5,4,7.01,182.25
357075486,1765370790833277,101225,12463000,-0.008105,0.006955,1.000187,0.024033,0.01178,0.013138,-33.583984,22.296391,30.859312,22.92,0.4,0.43,34.67,31.838893,34.821007,2.87,41.5,4,7.01,182.25
357079486,1765370790837277,101225,12463000,-0.008166,0.006955,0.999942,0.016403,0.01178,0.020767,-33.583984,22.296391,30.859312,22.93,0.4,0.44,34.66,31.838893,34.821007,2.87,41.5,4,7.01,182.25
357131486,1765370790889277,101225,12463100,-0.007373,0.006284,1.001712,0.001144,0.00415,0.020767,-33.583984,22.296391,30.859312,22.92,0.34,0.48,34.57,31.838891,34.821008,3.44,41.5,4,7.01,182.25
357135486,1765370790893277,101225,12463100,-0.007495,0.006406,1.001346,-0.006485,0.00415,0.043655,-33.583984,22.296391,30.859312,22.93,0.34,0.48,34.56,31.838891,34.821008,3.44,41.5,4,7.01,182.25
357139486,1765370790897277,101225,12463100,-0.007861,0.006528,1.001896,-0.006485,-0.011108,0.020767,-33.583984,22.296391,30.859312,22.93,0.33,0.48,34.56,31.838891,34.821008,3.44,41.5,4,7.01,182.25
357143486,1765370790901277,101225,12463100,-0.007983,0.006406,1.001896,0.008774,0.01178,0.043655,-33.583984,22.296391,30.859312,22.93,0.33,0.48,34.55,31.838891,34.821008,3.44,41.5,4,7.01,182.25
357195486,1765370790953277,101225,12463100,-0.0078,0.00726,1.00037,0.031662,-0.003479,-0.01738,-33.583984,22.296391,30.859312,22.93,0.3,0.5,34.47,31.838891,34.821008,3.44,41.5,4,7.01,182.25
357199486,1765370790957277,101225,12463100,-0.0078,0.007138,1.000187,0.031662,0.00415,-0.040268,-33.583984,22.296391,30.859312,22.93,0.3,0.51,34.46,31.838891,34.821008,3.44,41.5,4,7.01,182.25
357203486,1765370790961277,101225,12463100,-0.007861,0.006955,1.00037,0.039291,0.00415,-0.040268,-33.583984,22.296391,30.859312,22.93,0.3,0.51,34.46,31.838891,34.821008,3.44,41.5,4,7.01,182.25
357207486,1765370790965277,101225,12463100,-0.008227,0.006894,1.000309,0.046921,0.01178,-0.032639,-33.583984,22.296391,30.859312,22.93,0.29,0.51,34.45,31.838891,34.821008,3.44,41.5,4,7.01,182.25
357271486,1765370791029277,101225,12463100,-0.007007,0.007382,1.001041,0.008774,-0.011108,0.013138,-32.333515,20.678104,32.07288,22.92,0.24,0.54,34.3,31.838891,34.821008,3.44,41.3,4,7.02,182.25
357275486,1765370791033277,101225,12463100,-0.007251,0.007443,1.000797,0.001144,-0.003479,0.013138,-32.333515,20.678104,32.07288,22.92,0.23,0.54,34.29,31.838891,34.821008,3.44,41.3,4,7.02,182.25
357279486,1765370791037277,101225,12463100,-0.007251,0.007504,1.000553,-0.006485,0.01178,-0.002121,-32.333515,20.678104,32.07288,22.92,0.23,0.54,34.28,31.838891,34.821008,3.44,41.3,4,7.02,182.25
357283486,1765370791041277,101225,12463100,-0.007129,0.007077,1.00037,-0.006485,-0.003479,0.013138,-32.333515,20.678104,32.07288,22.92,0.23,0.55,34.27,31.838891,34.821008,3.44,41.3,4,7.02,182.25
357335486,1765370791093277,101225,12463100,-0.007678,0.008176,0.99982,-0.059891,0.01178,-0.01738,-32.333515,20.678104,32.07288,22.91,0.2,0.57,34.14,31.838891,34.821008,3.44,41.3,4,7.02,182.25
357339486,1765370791097277,101225,12463100,-0.007678,0.007932,0.999881,-0.07515,0.019409,-0.002121,-32.333515,20.678104,32.07288,22.91,0.2,0.57,34.13,31.838891,34.821008,3.44,41.3,4,7.02,182.25
357343486,1765370791101277,101225,12463100,-0.0078,0.007932,1.000187,-0.052261,0.034668,0.005508,-32.333515,20.678104,32.07288,22.91,0.2,0.57,34.12,31.838891,34.821008,3.44,41.3,4,7.02,182.25
357347486,1765370791105277,101225,12463100,-0.007678,0.007626,1.000248,-0.052261,0.027039,-0.01738,-32.333515,20.678104,32.07288,22.91,0.2,0.57,34.11,31.838891,34.821008,3.44,41.3,4,7.02,182.25
357403486,1765370791161277,101225,12463100,-0.0078,0.007749,1.00098,0.031662,0.019409,-0.055527,-32.333515,20.678104,32.07288,22.92,0.18,0.59,33.98,31.838891,34.821008,3.44,41.3,4,7.02,182.25
357407486,1765370791165277,101225,12463100,-0.007678,0.007565,1.000858,0.031662,0.019409,-0.032639,-32.333515,20.678104,32.07288,22.92,0.18,0.59,33.98,31.838891,34.821008,3.44,41.3,4,7.02,182.25
357411486,1765370791169277,101225,12463100,-0.008044,0.007016,1.000858,0.024033,0.01178,-0.047897,-32.333515,20.678104,32.07288,22.92,0.18,0.59,33.97,31.838891,34.821008,3.44,41.3,4,7.02,182.25
357415486,1765370791173277,101225,12463100,-0.008349,0.007138,1.000492,0.039291,0.01178,-0.055527,-32.333515,20.678104,32.07288,22.91,0.18,0.59,33.96,31.838891,34.821008,3.44,41.3,4,7.02,182.25
357467486,1765370791225277,101225,12463100,-0.007739,0.006345,0.99921,0.016403,-0.033997,-0.01738,-32.333515,20.678104,32.07288,22.91,0.18,0.6,33.86,31.838891,34.821008,3.44,41.3,4,7.02,182.25
357471486,1765370791229277,101225,12463100,-0.007617,0.006162,0.998783,0.016403,-0.033997,-0.002121,-32.333515,20.678104,32.07288,22.91,0.17,0.59,33.85,31.838891,34.821008,3.44,41.3,4,7.02,182.25
357475486,1765370791233277,101225,12463100,-0.007373,0.006284,0.998844,0.008774,-0.041626,-0.00975,-32.333515,20.678104,32.07288,22.91,0.17,0.59,33.84,31.838891,34.821008,3.44,41.3,4,7.02,182.25
357479486,1765370791237277,101225,12463100,-0.007495,0.006467,0.999271,0.001144,-0.041626,0.013138,-32.869431,22.296391,30.859312,22.9,0.18,0.59,33.84,31.838891,34.821008,3.44,41.3,4,7.02,182.25
357543486,1765370791301277,101225,12463100,-0.007495,0.00665,1.001224,-0.059891,0.00415,0.005508,-32.869431,22.296391,30.859312,22.91,0.26,0.53,33.88,31.838891,34.821008,3.44,41.3,4,7.02,182.25
357547486,1765370791305277,101225,12463100,-0.007556,0.006406,1.001285,-0.059891,0.01178,-0.00975,-32.869431,22.296391,30.859312,22.91,0.27,0.52,33.89,31.838891,34.821008,3.44,41.3,4,7.02,182.25
357551486,1765370791309277,101225,12463100,-0.007739,0.006406,1.001407,-0.052261,-0.003479,-0.025009,-32.869431,22.296391,30.859312,22.91,0.27,0.52,33.89,31.838891,34.821008,3.44,41.3,4,7.02,182.25
357555486,1765370791313277,101225,12463100,-0.008044,0.006528,1.001346,-0.044632,0.00415,-0.032639,-32.869431,22.296391,30.859312,22.91,0.27,0.52,33.89,31.838891,34.821008,3.44,41.3,4,7.02,182.25
357607486,1765370791365277,101225,12463100,-0.007129,0.006955,1.001163,0.024033,0.01178,-0.025009,-32.869431,22.296391,30.859312,22.91,0.32,0.49,33.92,31.838891,34.821008,3.44,41.3,4,7.02,182.25
357611486,1765370791369277,101225,12463100,-0.007312,0.006955,1.000919,0.031662,0.027039,0.013138,-32.869431,22.296391,30.859312,22.92,0.32,0.49,33.92,31.838891,34.821008,3.44,41.3,4,7.02,182.25
357615486,1765370791373277,101225,12463100,-0.007556,0.007016,1.001163,0.039291,0.019409,0.005508,-32.869431,22.296391,30.859312,22.92,0.32,0.48,33.92,31.838891,34.821008,3.44,41.3,4,7.02,182.25
357619486,1765370791377277,101225,12463100,-0.007373,0.007077,1.001102,0.039291,-0.003479,-0.002121,-32.869431,22.296391,30.859312,22.93,0.33,0.48,33.92,31.838891,34.821008,3.44,41.3,4,7.02,182.25
357671486,1765370791429277,101225,12463100,-0.007068,0.007565,0.999149,0.05455,0.00415,0.013138,-32.869431,22.296391,30.859312,22.91,0.36,0.46,33.94,31.838891,34.821008,3.44,41.3,4,7.02,182.25
357675486,1765370791433277,101225,12463100,-0.007129,0.007443,0.998966,0.05455,0.00415,-0.00975,-32.869431,22.296391,30.859312,22.91,0.36,0.46,33.94,31.838891,34.821008,3.44,41.3,4,7.02,182.25
357679486,1765370791437277,101225,12463100,-0.007312,0.00726,0.998905,0.039291,0.01178,-0.01738,-32.869431,22.296391,30.859312,22.92,0.36,0.45,33.94,31.838891,34.821008,3.44,41.3,4,7.02,182.25
357683486,1765370791441277,101225,12463100,-0.007434,0.007321,0.999393,0.016403,-0.003479,-0.01738,-32.869431,22.296391,30.859312,22.92,0.36,0.45,33.94,31.838891,34.821008,3.44,41.3,4,7.02,182.25
357747486,1765370791505277,101225,12463100,-0.006885,0.006833,1.000492,-0.037003,0.049927,0.005508,-32.154877,22.296391,30.859312,22.92,0.4,0.42,33.98,31.838891,34.821008,3.44,41.3,4,7.02,182.25
357751486,1765370791509277,101225,12463100,-0.006823,0.007077,1.000675,-0.029373,0.034668,-0.002121,-32.154877,22.296391,30.859312,22.92,0.4,0.42,33.98,31.838891,34.821008,3.44,41.3,4,7.02,182.25
357755486,1765370791513277,101225,12463100,-0.006885,0.00726,1.000797,-0.037003,0.034668,-0.002121,-32.154877,22.296391,30.859312,22.91,0.4,0.42,33.99,31.838891,34.821008,3.44,41.3,4,7.02,182.25
357759486,1765370791517277,101225,12463100,-0.006946,0.00726,1.001102,-0.044632,0.034668,0.005508,-32.154877,22.296391,30.859312,22.92,0.41,0.42,33.99,31.838891,34.821008,3.44,41.3,4,7.02,182.25
357811486,1765370791569277,101225,12463100,-0.008105,0.006589,1.000736,0.008774,0.042297,0.013138,-32.154877,22.296391,30.859312,22.92,0.43,0.4,34.05,31.838891,34.821008,3.44,41.3,4,7.02,182.25
357815486,1765370791573277,101225,12463100,-0.008044,0.00604,1.000919,0.001144,0.049927,0.013138,-32.154877,22.296391,30.859312,22.92,0.44,0.4,34.05,31.838891,34.821008,3.44,41.3,4,7.02,182.25
357819486,1765370791577277,101225,12463100,-0.007678,0.00604,1.000919,0.008774,0.042297,0.036026,-32.154877,22.296391,30.859312,22.92,0.44,0.4,34.06,31.838891,34.821008,3.44,41.3,4,7.02,182.25
357823486,1765370791581277,101225,12463100,-0.007983,0.006101,1.001468,0.024033,0.034668,0.028397,-32.154877,22.296391,30.859312,22.91,0.44,0.4,34.06,31.838891,34.821008,3.44,41.3,4,7.02,182.25
357875486,1765370791633277,101225,12463100,-0.007312,0.007504,1.00037,0.06218,0.027039,-0.047897,-31.618963,23.555059,31.379412,22.92,0.5,0.36,34.18,31.838891,34.821008,3.44,41.3,4,7.02,182.25
357879486,1765370791637277,101225,12463100,-0.007434,0.007504,1.000309,0.06218,0.027039,-0.032639,-31.618963,23.555059,31.379412,22.92,0.51,0.35,34.2,31.838891,34.821008,3.44,41.3,4,7.02,182.25
357883486,1765370791641277,101225,12463100,-0.007434,0.007382,1.000126,0.046921,0.01178,-0.047897,-31.618963,23.555059,31.379412,22.92,0.51,0.35,34.21,31.838891,34.821008,3.44,41.3,4,7.02,182.25
357887486,1765370791645277,101225,12463100,-0.007495,0.007199,0.999881,0.039291,0.00415,-0.063156,-31.618963,23.555059,31.379412,22.92,0.52,0.34,34.23,31.838891,34.821008,3.44,41.3,4,7.02,182.25
357943486,1765370791701277,101225,12463100,-0.007495,0.006223,1.000675,0.001144,0.042297,-0.025009,-31.618963,23.555059,31.379412,22.92,0.6,0.28,34.44,31.838891,34.821008,3.44,41.3,4,7.02,182.25
357947486,1765370791705277,101225,12463100,-0.007495,0.006284,1.000431,-0.014114,0.034668,-0.00975,-31.618963,23.555059,31.379412,22.92,0.6,0.28,34.45,31.838891,34.821008,3.44,41.3,4,7.02,182.25
357951486,1765370791709277,101225,12463100,-0.0078,0.006345,1.000492,-0.006485,0.027039,-0.002121,-31.618963,23.555059,31.379412,22.92,0.61,0.27,34.46,31.838891,34.821008,3.44,41.3,4,7.02,182.25
357955486,1765370791713277,101225,12463100,-0.007922,0.006406,1.000919,-0.006485,0.019409,0.005508,-31.618963,23.555059,31.379412,22.92,0.61,0.27,34.48,31.838891,34.821008,3.44,41.3,4,7.02,182.25
358019486,1765370791777277,101225,12463100,-0.008227,0.006589,1.000858,0.008774,-0.011108,-0.047897,-31.261686,22.4762,31.379412,22.92,0.61,0.28,34.61,31.838891,34.821008,3.44,41.3,4,7.02,182.25
358023486,1765370791781277,101225,12463100,-0.008105,0.006284,1.001041,0.001144,-0.011108,-0.047897,-31.261686,22.4762,31.379412,22.92,0.61,0.28,34.62,31.838891,34.821008,3.44,41.3,4,7.02,182.25
358027486,1765370791785277,101225,12463100,-0.007983,0.006467,1.001285,0.016403,-0.033997,-0.055527,-31.261686,22.4762,31.379412,22.92,0.61,0.28,34.63,31.838891,34.821008,3.44,41.3,4,7.02,182.25
358031486,1765370791789277,101225,12463100,-0.007861,0.006955,1.001407,0.008774,-0.033997,-0.040268,-31.261686,22.4762,31.379412,22.92,0.61,0.28,34.63,31.838891,34.821008,3.44,41.3,4,7.02,182.25
358083486,1765370791841277,101225,12463100,-0.007556,0.007321,1.000614,0.024033,-0.041626,-0.047897,-31.261686,22.4762,31.379412,22.92,0.6,0.29,34.7,31.838891,34.821008,3.44,41.3,4,7.02,182.25
358087486,1765370791845277,101225,12463100,-0.007678,0.007321,1.000858,0.024033,-0.033997,-0.040268,-31.261686,22.4762,31.379412,22.92,0.6,0.3,34.71,31.838891,34.821008,3.44,41.3,4,7.02,182.25
358091486,1765370791849277,101225,12463100,-0.007617,0.007138,1.00098,0.024033,-0.033997,-0.047897,-31.261686,22.4762,31.379412,22.92,0.6,0.3,34.71,31.838891,34.821008,3.44,41.3,4,7.02,182.25
358095486,1765370791853277,101225,12463100,-0.007495,0.007077,1.00098,0.031662,-0.033997,-0.040268,-31.261686,22.4762,31.379412,22.92,0.6,0.3,34.72,31.838891,34.821008,3.44,41.3,4,7.02,182.25
358147486,1765370791905277,101225,12463200,-0.007068,0.006467,1.000797,-0.006485,-0.003479,-0.025009,-32.690792,23.195438,31.726147,22.93,0.57,0.31,34.76,31.838898,34.82101,3.82,41.3,4,7.02,189.35
358151486,1765370791909277,101225,12463200,-0.00719,0.006467,1.000736,-0.006485,-0.011108,-0.032639,-32.690792,23.195438,31.726147,22.93,0.57,0.31,34.76,31.838898,34.82101,3.82,41.3,4,7.02,189.35
358155486,1765370791913277,101225,12463200,-0.007312,0.006467,1.000492,-0.006485,-0.011108,-0.032639,-32.690792,23.195438,31.726147,22.93,0.57,0.31,34.76,31.838898,34.82101,3.82,41.3,4,7.02,189.35
358159486,1765370791917277,101225,12463200,-0.00719,0.006467,1.000126,0.001144,-0.011108,-0.040268,-32.690792,23.195438,31.726147,22.93,0.56,0.32,34.76,31.838898,34.82101,3.82,41.3,4,7.02,189.35
358223486,1765370791981277,101225,12463200,-0.007556,0.007138,0.999759,-0.006485,0.019409,-0.002121,-32.690792,23.195438,31.726147,22.92,0.54,0.33,34.8,31.838898,34.82101,3.82,41.3,4,7.02,189.35
358227486,1765370791985277,101225,12463200,-0.007068,0.00726,0.999576,0.016403,0.01178,-0.00975,-32.690792,23.195438,31.726147,22.93,0.54,0.33,34.81,31.838898,34.82101,3.82,41.3,4,7.02,189.35
358231486,1765370791989277,101225,12463200,-0.007068,0.006894,0.999942,0.024033,0.01178,-0.01738,-31.261686,24.274296,31.379412,22.92,0.54,0.33,34.82,31.838898,34.82101,3.82,41.6,4,7.03,189.35
358235486,1765370791993277,101225,12463200,-0.007373,0.007016,1.000614,0.024033,-0.011108,-0.01738,-31.261686,24.274296,31.379412,22.92,0.55,0.32,34.84,31.838898,34.82101,3.82,41.6,4,7.03,189.35
358287486,1765370792045277,101225,12463200,-0.007373,0.006772,1.000187,0.024033,0.00415,-0.002121,-31.261686,24.274296,31.379412,22.93,0.65,0.25,35.08,31.838898,34.82101,3.82,41.6,4,7.03,189.35
358291486,1765370792049277,101225,12463200,-0.00719,0.006467,1.000003,0.024033,0.00415,-0.00975,-31.261686,24.274296,31.379412,22.93,0.65,0.24,35.09,31.838898,34.82101,3.82,41.6,4,7.03,189.35
358295486,1765370792053277,101225,12463200,-0.007251,0.00665,0.999759,0.031662,0.00415,0.005508,-31.261686,24.274296,31.379412,22.93,0.66,0.24,35.11,31.838898,34.82101,3.82,41.6,4,7.03,189.35
358299486,1765370792057277,101225,12463200,-0.007373,0.006894,0.999698,0.031662,0.01178,0.028397,-31.261686,24.274296,31.379412,22.93,0.66,0.24,35.13,31.838898,34.82101,3.82,41.6,4,7.03,189.35
358355486,1765370792113277,101225,12463200,-0.007068,0.00726,0.999332,0.016403,0.00415,-0.047897,-31.797602,23.015629,31.206045,22.92,0.71,0.2,35.35,31.838898,34.82101,3.82,41.6,4,7.03,189.35
358359486,1765370792117277,101225,12463200,-0.007068,0.007199,0.999698,0.008774,0.019409,-0.040268,-31.797602,23.015629,31.206045,22.93,0.71,0.2,35.35,31.838898,34.82101,3.82,41.6,4,7.03,189.35
358363486,1765370792121277,101225,12463200,-0.00719,0.007321,0.999942,0.001144,0.019409,-0.025009,-31.797602,23.015629,31.206045,22.93,0.7,0.21,35.35,31.838898,34.82101,3.82,41.6,4,7.03,189.35
358367486,1765370792125277,101225,12463200,-0.007495,0.007138,0.999881,0.001144,-0.003479,-0.025009,-31.797602,23.015629,31.206045,22.92,0.69,0.21,35.35,31.838898,34.82101,3.82,41.6,4,7.03,189.35
358427486,1765370792185277,101225,12463200,-0.008288,0.006528,1.000797,0.008774,-0.003479,-0.00975,-31.797602,23.015629,31.206045,22.93,0.62,0.27,35.38,31.838898,34.82101,3.82,41.6,4,7.03,189.35
358431486,1765370792189277,101225,12463200,-0.008288,0.006467,1.000797,0.001144,0.00415,-0.025009,-31.797602,23.015629,31.206045,22.92,0.62,0.27,35.38,31.838898,34.82101,3.82,41.6,4,7.03,189.35
358435486,1765370792193277,101225,12463200,-0.008105,0.006528,1.000736,0.001144,0.01178,-0.025009,-31.797602,23.015629,31.206045,22.92,0.61,0.28,35.38,31.838898,34.82101,3.82,41.6,4,7.03,189.35
358439486,1765370792197277,101225,12463200,-0.008166,0.006833,1.000675,0.016403,0.00415,-0.01738,-31.797602,23.015629,31.206045,22.93,0.61,0.28,35.38,31.838898,34.82101,3.82,41.6,4,7.03,189.35
358495486,1765370792253277,101225,12463200,-0.007678,0.00726,1.001773,0.046921,-0.003479,-0.01738,-31.797602,23.015629,31.206045,22.93,0.57,0.31,35.41,31.838898,34.82101,3.82,41.6,4,7.03,189.35
358499486,1765370792257277,101225,12463200,-0.007678,0.007321,1.001468,0.039291,0.00415,-0.00975,-31.797602,23.015629,31.206045,22.93,0.57,0.32,35.41,31.838898,34.82101,3.82,41.6,4,7.03,189.35
358503486,1765370792261277,101225,12463200,-0.007739,0.007504,1.001041,0.031662,0.01178,-0.00975,-31.797602,23.015629,31.206045,22.93,0.57,0.32,35.41,31.838898,34.82101,3.82,41.6,4,7.03,189.35
358507486,1765370792265277,101225,12463200,-0.007922,0.007688,1.000919,0.039291,0.01178,-0.025009,-31.797602,23.015629,31.206045,22.93,0.57,0.32,35.41,31.838898,34.82101,3.82,41.6,4,7.03,189.35
358559486,1765370792317277,101225,12463200,-0.007373,0.007993,1.000248,0.008774,-0.018738,-0.047897,-31.797602,23.015629,31.206045,22.93,0.55,0.34,35.43,31.838898,34.82101,3.82,41.6,4,7.03,189.35
358563486,1765370792321277,101225,12463200,-0.007434,0.007688,1.000553,0.001144,-0.003479,-0.032639,-31.797602,23.015629,31.206045,22.93,0.55,0.34,35.44,31.838898,34.82101,3.82,41.6,4,7.03,189.35
358567486,1765370792325277,101225,12463200,-0.007678,0.007626,1.000736,0.016403,-0.003479,-0.047897,-31.797602,23.015629,31.206045,22.93,0.54,0.34,35.44,31.838898,34.82101,3.82,41.6,4,7.03,189.35
358571486,1765370792329277,101225,12463200,-0.007678,0.007504,1.000919,0.016403,-0.011108,-0.025009,-31.797602,23.015629,31.206045,22.93,0.54,0.34,35.44,31.838898,34.82101,3.82,41.6,4,7.03,189.35
358623486,1765370792381277,101225,12463200,-0.007861,0.006772,1.000919,0.039291,0.00415,-0.025009,-33.226707,23.015629,31.55278,22.94,0.5,0.38,35.43,31.838898,34.82101,3.82,41.6,4,7.03,189.35
358627486,1765370792385277,101225,12463200,-0.007922,0.006772,1.00098,0.046921,0.00415,-0.025009,-33.226707,23.015629,31.55278,22.95,0.49,0.38,35.42,31.838898,34.82101,3.82,41.6,4,7.03,189.35
358631486,1765370792389277,101225,12463200,-0.007617,0.006711,1.001346,0.039291,-0.003479,-0.032639,-33.226707,23.015629,31.55278,22.95,0.48,0.39,35.42,31.838898,34.82101,3.82,41.6,4,7.03,189.35
358635486,1765370792393277,101225,12463200,-0.007678,0.006711,1.001651,0.031662,-0.018738,-0.01738,-33.226707,23.015629,31.55278,22.95,0.48,0.39,35.41,31.838898,34.82101,3.82,41.6,4,7.03,189.35
358699486,1765370792457277,101225,12463200,-0.007495,0.007321,1.000919,0.008774,-0.003479,-0.047897,-33.226707,23.015629,31.55278,22.94,0.41,0.44,35.33,31.838898,34.82101,3.82,41.6,4,7.03,189.35
358703486,1765370792461277,101225,12463200,-0.007617,0.007504,1.000431,0.016403,-0.003479,-0.00975,-33.226707,23.015629,31.55278,22.93,0.41,0.44,35.32,31.838898,34.82101,3.82,41.6,4,7.03,189.35
358707486,1765370792465277,101225,12463200,-0.007739,0.007321,1.000126,0.016403,0.00415,-0.032639,-33.226707,23.015629,31.55278,22.93,0.4,0.44,35.32,31.838898,34.82101,3.82,41.6,4,7.03,189.35
358711486,1765370792469277,101225,12463200,-0.008105,0.007749,1.000064,0.001144,0.01178,-0.00975,-33.226707,23.015629,31.55278,22.93,0.4,0.45,35.31,31.838898,34.82101,3.82,41.6,4,7.03,189.35
358767486,1765370792525277,101225,12463200,-0.007495,0.006467,1.00098,0.008774,-0.018738,0.005508,-30.725773,20.857916,32.939713,22.94,0.34,0.48,35.22,31.838898,34.82101,3.82,41.6,4,7.03,189.35
358771486,1765370792529277,101225,12463200,-0.007678,0.006284,1.001285,0.016403,-0.018738,0.013138,-30.725773,20.857916,32.939713,22.94,0.34,0.48,35.22,31.838898,34.82101,3.82,41.6,4,7.03,189.35
358787486,1765370792545277,101225,12463200,-0.007617,0.006345,1.000797,0.008774,0.00415,-0.01738,-30.725773,20.857916,32.939713,22.94,0.32,0.49,35.19,31.838898,34.82101,3.82,41.6,4,7.03,189.35
358791486,1765370792549277,101225,12463200,-0.007495,0.006162,1.00098,0.016403,0.00415,-0.025009,-30.725773,20.857916,32.939713,22.93,0.32,0.49,35.18,31.838898,34.82101,3.82,41.6,4,7.03,189.35
358831486,1765370792589277,101225,12463200,-0.007678,0.006406,1.00098,-0.014114,0.034668,-0.047897,-30.725773,20.857916,32.939713,22.93,0.29,0.51,35.12,31.838898,34.82101,3.82,41.6,4,7.03,189.35
358835486,1765370792593277,101225,12463200,-0.007617,0.006528,1.000126,-0.006485,0.049927,-0.040268,-30.725773,20.857916,32.939713,22.93,0.29,0.51,35.11,31.838898,34.82101,3.82,41.6,4,7.03,189.35
358839486,1765370792597277,101225,12463200,-0.007556,0.006284,1.000187,-0.014114,0.057556,-0.025009,-30.725773,20.857916,32.939713,22.93,0.28,0.51,35.11,31.838898,34.82101,3.82,41.6,4,7.03,189.35
358843486,1765370792601277,101225,12463200,-0.007739,0.006345,1.000064,-0.006485,0.042297,-0.025009,-30.725773,20.857916,32.939713,22.93,0.28,0.51,35.1,31.838898,34.82101,3.82,41.6,4,7.03,189.35
358895486,1765370792653277,101225,12463200,-0.007373,0.007932,1.000248,0.046921,0.00415,-0.00975,-32.690792,21.397343,30.685946,22.93,0.23,0.55,34.97,31.838898,34.82101,3.82,41.6,4,7.03,189.35
358899486,1765370792657277,101225,12463200,-0.007495,0.007749,1.000492,0.046921,0.00415,-0.01738,-32.690792,21.397343,30.685946,22.93,0.23,0.55,34.95,31.838898,34.82101,3.82,41.6,4,7.03,189.35
358903486,1765370792661277,101225,12463200,-0.007556,0.007504,1.001346,0.039291,-0.003479,-0.032639,-32.690792,21.397343,30.685946,22.93,0.23,0.55,34.94,31.838898,34.82101,3.82,41.6,4,7.03,189.35
358907486,1765370792665277,101225,12463200,-0.007556,0.007504,1.001285,0.046921,-0.011108,-0.047897,-32.690792,21.397343,30.685946,22.93,0.22,0.55,34.93,31.838898,34.82101,3.82,41.6,4,7.03,189.35
358971486,1765370792729277,101225,12463200,-0.008105,0.006589,1.000003,0.024033,-0.003479,-0.025009,-32.690792,21.397343,30.685946,22.93,0.18,0.58,34.77,31.838898,34.82101,3.82,41.6,4,7.03,189.35
358975486,1765370792733277,101225,12463200,-0.008288,0.00665,0.999515,0.031662,-0.018738,-0.025009,-32.690792,21.397343,30.685946,22.93,0.18,0.58,34.76,31.838898,34.82101,3.82,41.6,4,7.03,189.35
358979486,1765370792737277,101225,12463200,-0.008532,0.006955,0.999698,0.016403,-0.011108,-0.01738,-32.690792,21.397343,30.685946,22.93,0.18,0.59,34.75,31.838898,34.82101,3.82,41.6,4,7.03,189.35
358983486,1765370792741277,101225,12463200,-0.008594,0.006894,0.999576,0.016403,-0.018738,-0.00975,-32.869431,23.015629,32.246246,22.93,0.18,0.59,34.74,31.838898,34.82101,3.82,41.6,4,7.03,189.35
359035486,1765370792793277,101225,12463200,-0.008166,0.007443,1.000431,0.039291,0.01178,-0.002121,-32.869431,23.015629,32.246246,22.93,0.26,0.55,34.78,31.838898,34.82101,3.82,41.6,4,7.03,189.35
359039486,1765370792797277,101225,12463200,-0.008044,0.007443,1.000064,0.046921,0.019409,0.005508,-32.869431,23.015629,32.246246,22.94,0.27,0.54,34.78,31.838898,34.82101,3.82,41.6,4,7.03,189.35
359043486,1765370792801277,101225,12463200,-0.007861,0.007321,1.000003,0.039291,0.027039,0.020767,-32.869431,23.015629,32.246246,22.94,0.27,0.54,34.78,31.838898,34.82101,3.82,41.6,4,7.03,189.35
359047486,1765370792805277,101225,12463200,-0.007922,0.00726,1.000003,0.039291,0.027039,0.036026,-32.869431,23.015629,32.246246,22.94,0.28,0.54,34.78,31.838898,34.82101,3.82,41.6,4,7.03,189.35
359103486,1765370792861277,101225,12463300,-0.008838,0.007016,1.000797,0.008774,-0.011108,-0.01738,-32.869431,23.015629,32.246246,22.94,0.33,0.51,34.81,31.83891,34.821014,2.09,41.6,4,7.03,189.35
359107487,1765370792865278,101225,12463300,-0.008594,0.00726,1.000858,0.016403,-0.003479,-0.002121,-32.869431,23.015629,32.246246,22.94,0.33,0.51,34.81,31.83891,34.821014,2.09,41.6,4,7.03,189.35
359111486,1765370792869277,101225,12463300,-0.008288,0.007443,1.001102,0.016403,-0.011108,-0.01738,-32.869431,23.015629,32.246246,22.93,0.33,0.51,34.81,31.83891,34.821014,2.09,41.6,4,7.03,189.35
359115486,1765370792873277,101225,12463300,-0.008288,0.007443,1.001346,0.001144,-0.018738,-0.025009,-32.869431,23.015629,32.246246,22.93,0.33,0.5,34.81,31.83891,34.821014,2.09,41.6,4,7.03,189.35
359179486,1765370792937277,101225,12463300,-0.007983,0.006772,1.001346,0.024033,0.00415,-0.01738,-32.869431,23.015629,32.246246,22.94,0.36,0.48,34.83,31.83891,34.821014,2.09,41.6,4,7.03,189.35
359183486,1765370792941277,101225,12463300,-0.008044,0.006894,1.001285,0.008774,-0.003479,-0.01738,-32.869431,23.015629,32.246246,22.94,0.37,0.48,34.83,31.83891,34.821014,2.09,41.6,4,7.03,189.35
359187486,1765370792945277,101225,12463300,-0.008227,0.006833,1.001041,0.008774,0.00415,-0.00975,-32.869431,23.015629,32.246246,22.95,0.37,0.48,34.83,31.83891,34.821014,2.09,41.6,4,7.03,189.35
359191486,1765370792949277,101225,12463300,-0.007861,0.006711,1.001102,0.008774,0.00415,-0.002121,-32.869431,23.015629,32.246246,22.94,0.37,0.48,34.83,31.83891,34.821014,2.09,41.6,4,7.03,189.35
359243486,1765370793001277,101225,12463300,-0.007678,0.007138,1.00098,0.001144,0.027039,-0.00975,-33.583984,21.936773,31.899513,22.94,0.36,0.48,34.81,31.83891,34.821014,2.09,42.3,4,7.04,189.35
359247486,1765370793005277,101225,12463300,-0.007251,0.006833,1.001407,0.016403,0.01178,-0.025009,-33.583984,21.936773,31.899513,22.94,0.36,0.48,34.8,31.83891,34.821014,2.09,42.3,4,7.04,189.35
359251486,1765370793009277,101225,12463300,-0.007068,0.007382,1.001529,0.024033,0.01178,-0.032639,-33.583984,21.936773,31.899513,22.94,0.35,0.49,34.79,31.83891,34.821014,2.09,42.3,4,7.04,189.35
359255486,1765370793013277,101225,12463300,-0.007312,0.007077,1.001773,0.016403,0.01178,-0.055527,-33.583984,21.936773,31.899513,22.94,0.34,0.49,34.78,31.83891,34.821014,2.09,42.3,4,7.04,189.35
359307486,1765370793065277,101225,12463300,-0.007739,0.006772,1.001041,0.008774,0.00415,-0.01738,-33.583984,21.936773,31.899513,22.94,0.28,0.53,34.64,31.83891,34.821014,2.09,42.3,4,7.04,189.35
359311486,1765370793069277,101225,12463300,-0.007556,0.006711,1.000675,0.001144,0.019409,-0.025009,-33.583984,21.936773,31.899513,22.94,0.27,0.53,34.63,31.83891,34.821014,2.09,42.3,4,7.04,189.35
359315486,1765370793073277,101225,12463300,-0.007556,0.00665,1.000553,0.008774,0.01178,-0.00975,-33.583984,21.936773,31.899513,22.94,0.27,0.54,34.62,31.83891,34.821014,2.09,42.3,4,7.04,189.35
359319486,1765370793077277,101225,12463300,-0.007495,0.006711,1.000919,0.008774,0.027039,-0.00975,-33.583984,21.936773,31.899513,22.94,0.27,0.54,34.61,31.83891,34.821014,2.09,42.3,4,7.04,189.35
359371486,1765370793129277,101225,12463300,-0.007312,0.006772,1.000553,0.031662,0.019409,0.036026,-31.261686,23.914679,31.032679,22.94,0.29,0.51,34.6,31.83891,34.821014,2.09,42.3,4,7.04,189.35
359375486,1765370793133277,101225,12463300,-0.007068,0.007016,1.000431,0.024033,0.042297,0.028397,-31.261686,23.914679,31.032679,22.94,0.3,0.5,34.62,31.83891,34.821014,2.09,42.3,4,7.04,189.35
359379486,1765370793137277,101225,12463300,-0.007068,0.007016,1.000675,0.016403,0.027039,0.036026,-31.261686,23.914679,31.032679,22.94,0.32,0.49,34.64,31.83891,34.821014,2.09,42.3,4,7.04,189.35
359383486,1765370793141277,101225,12463300,-0.007068,0.006711,1.000858,0.031662,0.027039,0.036026,-31.261686,23.914679,31.032679,22.95,0.33,0.48,34.66,31.83891,34.821014,2.09,42.3,4,7.04,189.35
359447486,1765370793205277,101225,12463300,-0.007312,0.007199,1.001896,0.001144,0.049927,0.028397,-31.261686,23.914679,31.032679,22.95,0.51,0.34,34.94,31.83891,34.821014,2.09,42.3,4,7.04,189.35
359451486,1765370793209277,101225,12463300,-0.007251,0.006894,1.001468,0.008774,0.019409,0.020767,-31.261686,23.914679,31.032679,22.94,0.52,0.34,34.96,31.83891,34.821014,2.09,42.3,4,7.04,189.35
359455486,1765370793213277,101225,12463300,-0.00719,0.006589,1.001163,0.024033,0.01178,0.020767,-31.261686,23.914679,31.032679,22.94,0.52,0.33,34.97,31.83891,34.821014,2.09,42.3,4,7.04,189.35
359459486,1765370793217277,101225,12463300,-0.007495,0.006711,1.00098,0.016403,0.019409,-0.002121,-31.261686,23.914679,31.032679,22.95,0.53,0.33,34.99,31.83891,34.821014,2.09,42.3,4,7.04,189.35
359515486,1765370793273277,101225,12463300,-0.007739,0.007077,1.000553,0.085068,-0.041626,-0.00975,-31.440325,23.734869,31.55278,22.94,0.6,0.28,35.18,31.83891,34.821014,2.09,42.3,4,7.04,189.35
359519486,1765370793277277,101225,12463300,-0.007678,0.007138,1.00037,0.077438,-0.041626,-0.00975,-31.440325,23.734869,31.55278,22.94,0.6,0.28,35.19,31.83891,34.821014,2.09,42.3,4,7.04,189.35
359523486,1765370793281277,101225,12463300,-0.007739,0.007199,1.000064,0.069809,-0.018738,0.005508,-31.440325,23.734869,31.55278,22.94,0.6,0.28,35.2,31.83891,34.821014,2.09,42.3,4,7.04,189.35
359527486,1765370793285277,101225,12463300,-0.007617,0.007077,1.000492,0.05455,-0.011108,-0.01738,-31.440325,23.734869,31.55278,22.94,0.6,0.28,35.21,31.83891,34.821014,2.09,42.3,4,7.04,189.35
359579486,1765370793337277,101225,12463300,-0.007251,0.007382,0.999698,-0.006485,-0.018738,-0.01738,-31.440325,23.734869,31.55278,22.93,0.63,0.26,35.35,31.83891,34.821014,2.09,42.3,4,7.04,189.35
359583486,1765370793341277,101225,12463300,-0.007373,0.006955,1.000126,-0.021744,-0.011108,-0.040268,-31.440325,23.734869,31.55278,22.93,0.63,0.26,35.36,31.83891,34.821014,2.09,42.3,4,7.04,189.35
359587486,1765370793345277,101225,12463300,-0.007373,0.00665,0.999698,-0.029373,0.00415,-0.025009,-31.440325,23.734869,31.55278,22.93,0.63,0.26,35.36,31.83891,34.821014,2.09,42.3,4,7.04,189.35
359591486,1765370793349277,101225,12463300,-0.007495,0.006772,0.999698,-0.037003,-0.011108,-0.025009,-31.440325,23.734869,31.55278,22.94,0.63,0.26,35.37,31.83891,34.821014,2.09,42.3,4,7.04,189.35
359655486,1765370793413277,101225,12463300,-0.0078,0.007199,1.002018,0.008774,0.01178,0.013138,-31.618963,24.633917,31.032679,22.94,0.68,0.22,35.59,31.83891,34.821014,2.09,42.3,4,7.04,189.35
359659486,1765370793417277,101225,12463300,-0.007617,0.007138,1.001651,0.016403,0.01178,-0.00975,-31.618963,24.633917,31.032679,22.94,0.68,0.22,35.6,31.83891,34.821014,2.09,42.3,4,7.04,189.35
359663486,1765370793421277,101225,12463300,-0.007739,0.006955,1.001285,0.001144,-0.003479,-0.01738,-31.618963,24.633917,31.032679,22.94,0.68,0.22,35.62,31.83891,34.821014,2.09,42.3,4,7.04,189.35
359667486,1765370793425277,101225,12463300,-0.007983,0.006955,1.001102,0.001144,0.00415,-0.01738,-31.618963,24.633917,31.032679,22.94,0.68,0.22,35.63,31.83891,34.821014,2.09,42.3,4,7.04,189.35
359719486,1765370793477277,101225,12463300,-0.00841,0.007077,0.999759,0.016403,0.027039,-0.01738,-31.618963,24.633917,31.032679,22.94,0.71,0.21,35.8,31.83891,34.821014,2.09,42.3,4,7.04,189.35
359723486,1765370793481277,101225,12463300,-0.008716,0.007138,0.999942,0.024033,0.019409,-0.01738,-31.618963,24.633917,31.032679,22.94,0.71,0.21,35.82,31.83891,34.821014,2.09,42.3,4,7.04,189.35
359727486,1765370793485277,101225,12463300,-0.008655,0.007077,0.99921,0.031662,0.01178,-0.025009,-31.618963,24.633917,31.032679,22.93,0.71,0.21,35.83,31.83891,34.821014,2.09,42.3,4,7.04,189.35
359731486,1765370793489277,101225,12463300,-0.008655,0.007382,0.999149,0.031662,-0.003479,-0.00975,-31.618963,24.633917,31.032679,22.94,0.71,0.22,35.84,31.83891,34.821014,2.09,42.3,4,7.04,189.35
359783486,1765370793541277,101225,12463300,-0.008227,0.007077,0.999637,0.008774,0.027039,-0.002121,-31.618963,24.633917,31.032679,22.94,0.72,0.22,35.99,31.83891,34.821014,2.09,42.3,4,7.04,189.35
359787486,1765370793545277,101225,12463300,-0.008227,0.007199,0.999454,0.001144,0.01178,0.013138,-31.618963,24.633917,31.032679,22.94,0.72,0.22,36.0,31.83891,34.821014,2.09,42.3,4,7.04,189.35
359791486,1765370793549277,101225,12463300,-0.007922,0.00726,0.999576,0.008774,0.00415,-0.002121,-31.618963,24.633917,31.032679,22.94,0.72,0.22,36.01,31.83891,34.821014,2.09,42.3,4,7.04,189.35
359795486,1765370793553277,101225,12463300,-0.008166,0.007016,0.999332,0.016403,-0.003479,0.005508,-31.618963,24.633917,31.032679,22.94,0.72,0.22,36.02,31.83891,34.821014,2.09,42.3,4,7.04,189.35
359859486,1765370793617277,101225,12463300,-0.008655,0.006772,1.000858,0.024033,0.019409,-0.00975,-31.618963,24.633917,31.032679,22.92,0.71,0.24,36.19,31.83891,34.821014,2.09,42.3,4,7.04,189.35
359863486,1765370793621277,101225,12463300,-0.008288,0.00665,1.001041,0.024033,0.019409,-0.00975,-31.440325,24.094486,32.592979,22.92,0.7,0.24,36.2,31.83891,34.821014,2.09,42.3,4,7.04,189.35
359867486,1765370793625277,101225,12463300,-0.008227,0.006833,1.001224,0.039291,0.034668,-0.002121,-31.440325,24.094486,32.592979,22.92,0.7,0.24,36.2,31.83891,34.821014,2.09,42.3,4,7.04,189.35
359871486,1765370793629277,101225,12463300,-0.008532,0.007077,1.001712,0.039291,0.042297,0.005508,-31.440325,24.094486,32.592979,22.92,0.7,0.25,36.21,31.83891,34.821014,2.09,42.3,4,7.04,189.35
359923486,1765370793681277,101225,12463300,-0.007983,0.00665,1.000614,0.046921,0.00415,-0.01738,-31.440325,24.094486,32.592979,22.93,0.67,0.27,36.29,31.83891,34.821014,2.09,42.3,4,7.04,189.35
359927486,1765370793685277,101225,12463300,-0.008105,0.006711,1.000858,0.06218,0.01178,-0.032639,-31.440325,24.094486,32.592979,22.93,0.67,0.27,36.3,31.83891,34.821014,2.09,42.3,4,7.04,189.35
359931486,1765370793689277,101225,12463300,-0.008227,0.00665,1.001407,0.077438,0.01178,-0.040268,-31.440325,24.094486,32.592979,22.93,0.66,0.28,36.3,31.83891,34.821014,2.09,42.3,4,7.04,189.35
359935486,1765370793693277,101225,12463300,-0.008227,0.006711,1.001285,0.05455,0.00415,-0.032639,-31.440325,24.094486,32.592979,22.93,0.66,0.28,36.31,31.83891,34.821014,2.09,42.3,4,7.04,189.35
359987486,1765370793745277,101225,12463300,-0.007434,0.006711,1.000126,0.069809,0.01178,-0.01738,-32.512154,21.577152,31.206045,22.92,0.62,0.3,36.37,31.83891,34.821014,2.09,42.3,4,7.04,189.35
359991486,1765370793749277,101225,12463300,-0.007617,0.006528,1.000431,0.06218,0.01178,-0.025009,-32.512154,21.577152,31.206045,22.92,0.6,0.31,36.35,31.83891,34.821014,2.09,42.3,4,7.04,189.35
359995486,1765370793753277,101225,12463300,-0.007495,0.006528,1.000919,0.069809,0.00415,-0.002121,-32.512154,21.577152,31.206045,22.92,0.58,0.32,36.33,31.83891,34.821014,2.09,42.3,4,7.04,189.35
359999486,1765370793757277,101225,12463300,-0.007861,0.006528,1.001224,0.06218,-0.003479,-0.040268,-32.512154,21.577152,31.206045,22.92,0.57,0.33,36.31,31.83891,34.821014,2.09,42.3,4,7.04,189.35
360055486,1765370793813277,101225,12463300,-0.00719,0.006711,1.000126,-0.006485,0.027039,-0.01738,-32.512154,21.577152,31.206045,22.92,0.38,0.46,36.05,31.83891,34.821014,2.09,42.3,4,7.04,189.35
360059486,1765370793817277,101225,12463300,-0.007556,0.006833,0.999515,-0.014114,0.019409,-0.002121,-32.512154,21.577152,31.206045,22.92,0.36,0.46,36.03,31.83891,34.821014,2.09,42.3,4,7.04,189.35
360063486,1765370793821277,101225,12463300,-0.007434,0.006711,0.999881,-0.021744,0.034668,-0.00975,-32.512154,21.577152,31.206045,22.92,0.35,0.47,36.02,31.83891,34.821014,2.09,42.3,4,7.04,189.35
360067486,1765370793825277,101225,12463300,-0.007434,0.006772,1.000309,-0.037003,0.042297,0.013138,-32.512154,21.577152,31.206045,22.92,0.34,0.48,36.0,31.83891,34.821014,2.09,42.3,4,7.04,189.35
360127486,1765370793885277,101225,12463400,-0.007129,0.007504,1.001041,-0.006485,-0.003479,-0.00975,-31.797602,23.375248,32.246246,22.91,0.28,0.52,35.85,31.838922,34.821018,0.2,42.3,4,7.04,189.35
360131486,1765370793889277,101225,12463400,-0.006823,0.007565,1.001346,-0.006485,0.00415,-0.00975,-31.797602,23.375248,32.246246,22.91,0.29,0.51,35.86,31.838922,34.821018,0.2,42.3,4,7.04,189.35
360135486,1765370793893277,101225,12463400,-0.007068,0.00781,1.001224,-0.014114,0.01178,-0.00975,-31.797602,23.375248,32.246246,22.91,0.3,0.51,35.86,31.838922,34.821018,0.2,42.3,4,7.04,189.35
360139486,1765370793897277,101225,12463400,-0.007129,0.007565,1.001651,-0.021744,0.027039,-0.025009,-31.797602,23.375248,32.246246,22.91,0.3,0.5,35.86,31.838922,34.821018,0.2,42.3,4,7.04,189.35
360195486,1765370793953277,101225,12463400,-0.007495,0.007138,1.000248,0.031662,-0.011108,0.013138,-31.797602,23.375248,32.246246,22.91,0.36,0.46,35.91,31.838922,34.821018,0.2,42.3,4,7.04,189.35
360199486,1765370793957277,101225,12463400,-0.007312,0.006955,1.000248,0.039291,-0.011108,-0.002121,-31.797602,23.375248,32.246246,22.91,0.36,0.46,35.91,31.838922,34.821018,0.2,42.3,4,7.04,189.35
360203486,1765370793961277,101225,12463400,-0.007373,0.006955,1.000492,0.039291,-0.026367,-0.01738,-31.797602,23.375248,32.246246,22.91,0.37,0.45,35.91,31.838922,34.821018,0.2,42.3,4,7.04,189.35
360207486,1765370793965277,101225,12463400,-0.007373,0.00726,1.00037,0.039291,-0.026367,-0.00975,-31.797602,23.375248,32.246246,22.91,0.37,0.45,35.92,31.838922,34.821018,0.2,42.3,4,7.04,189.35
360259486,1765370794017277,101225,12463400,-0.007678,0.008237,0.999515,0.001144,-0.041626,0.020767,-32.333515,22.4762,31.726147,22.91,0.36,0.46,35.89,31.838922,34.821018,0.2,43.0,4,7.05,189.35
360263486,1765370794021277,101225,12463400,-0.007556,0.008298,0.999393,0.008774,-0.041626,0.013138,-32.333515,22.4762,31.726147,22.91,0.36,0.46,35.88,31.838922,34.821018,0.2,43.0,4,7.05,189.35
360267486,1765370794025277,101225,12463400,-0.007495,0.007932,1.000003,0.001144,-0.018738,0.013138,-32.333515,22.4762,31.726147,22.91,0.36,0.47,35.87,31.838922,34.821018,0.2,43.0,4,7.05,189.35
360271486,1765370794029277,101225,12463400,-0.007617,0.007565,1.002445,0.016403,0.00415,-0.002121,-32.333515,22.4762,31.726147,22.91,0.36,0.47,35.87,31.838922,34.821018,0.2,43.0,4,7.05,189.35
360335486,1765370794093277,101225,12463400,-0.008471,0.005734,1.011844,0.374985,-0.087402,-0.025009,-32.333515,22.4762,31.726147,22.91,0.31,0.51,35.76,31.838922,34.821018,0.2,43.0,4,7.05,189.35
360339486,1765370794097277,101225,12463400,-0.007983,0.006101,1.009281,0.504684,-0.102661,-0.025009,-32.333515,22.4762,31.726147,22.91,0.31,0.51,35.75,31.838922,34.821018,0.2,43.0,4,7.05,189.35
360343486,1765370794101277,101225,12463400,-0.008105,0.00604,1.005252,0.596237,-0.095032,-0.040268,-32.333515,22.4762,31.726147,22.91,0.3,0.51,35.74,31.838922,34.821018,0.2,43.0,4,7.05,189.35
360347486,1765370794105277,101225,12463400,-0.007617,0.005856,1.003849,0.68779,-0.087402,-0.055527,-32.333515,22.4762,31.726147,22.91,0.3,0.51,35.74,31.838922,34.821018,0.2,43.0,4,7.05,189.35
360399486,1765370794157277,101225,12463400,-0.004809,0.004697,1.005924,1.06926,-0.186584,-0.002121,-32.333515,22.4762,31.726147,22.91,0.29,0.53,35.66,31.838922,34.821018,0.2,43.0,4,7.05,189.35
360403486,1765370794161277,101225,12463400,-0.006396,0.006345,1.006351,1.282883,-0.262878,-0.032639,-32.333515,22.4762,31.726147,22.91,0.29,0.53,35.66,31.838922,34.821018,0.2,43.0,4,7.05,189.35
360467486,1765370794225277,101225,12463400,-0.007007,0.010678,0.992862,0.039291,-0.003479,-0.025009,-32.333515,22.4762,31.726147,22.9,0.33,0.52,35.57,31.838922,34.821018,0.2,43.0,4,7.05,189.35
360471486,1765370794229277,101225,12463400,-0.007373,0.009763,0.998417,-0.059891,0.034668,-0.040268,-32.333515,22.4762,31.726147,22.9,0.33,0.52,35.57,31.838922,34.821018,0.2,43.0,4,7.05,189.35
360475486,1765370794233277,101225,12463400,-0.007312,0.009458,1.00159,-0.098038,0.049927,-0.040268,-32.333515,22.4762,31.726147,22.9,0.33,0.52,35.56,31.838922,34.821018,0.2,43.0,4,7.05,189.35
360479486,1765370794237277,101225,12463400,-0.007251,0.009152,1.005191,-0.113297,0.019409,-0.040268,-32.333515,22.4762,31.726147,22.9,0.34,0.52,35.56,31.838922,34.821018,0.2,43.0,4,7.05,189.35
360499486,1765370794257277,101225,12463400,-0.007251,0.009152,0.99506,-0.174332,0.01178,-0.047897,-32.690792,23.195438,31.726147,22.9,0.35,0.51,35.55,31.838922,34.821018,0.2,43.0,4,7.05,189.35
360503486,1765370794261277,101225,12463400,-0.008044,0.008969,0.999698,-0.19722,0.019409,-0.032639,-32.690792,23.195438,31.726147,22.91,0.35,0.51,35.55,31.838922,34.821018,0.2,43.0,4,7.05,189.35
360507486,1765370794265277,101225,12463400,-0.007617,0.008054,1.006168,-0.159073,0.019409,-0.025009,-32.690792,23.195438,31.726147,22.91,0.36,0.51,35.54,31.838922,34.821018,0.2,43.0,4,7.05,189.35
360511486,1765370794269277,101225,12463400,-0.007312,0.007932,1.008854,-0.06752,0.00415,-0.01738,-32.690792,23.195438,31.726147,22.91,0.36,0.51,35.54,31.838922,34.821018,0.2,43.0,4,7.05,189.35
360575486,1765370794333277,101225,12463400,-0.00841,0.014951,0.977909,-0.723648,0.149109,0.020767,-32.690792,23.195438,31.726147,22.89,0.41,0.5,35.52,31.838922,34.821018,0.2,43.0,4,7.05,189.35
360579486,1765370794337277,101225,12463400,-0.007678,0.01489,0.969303,-1.181412,0.217773,0.013138,-32.690792,23.195438,31.726147,22.89,0.42,0.5,35.52,31.838922,34.821018,0.2,43.0,4,7.05,189.35
360583486,1765370794341277,101225,12463400,-0.007556,0.014951,0.963993,-1.730728,0.294067,0.043655,-32.690792,23.195438,31.726147,22.89,0.43,0.5,35.52,31.838922,34.821018,0.2,43.0,4,7.05,189.35
360587486,1765370794345277,101225,12463400,-0.007556,0.015439,0.959232,-2.257156,0.339844,0.066544,-32.690792,23.195438,31.726147,22.89,0.43,0.5,35.52,31.838922,34.821018,0.2,43.0,4,7.05,189.35
360639486,1765370794397277,101225,12463400,-0.008594,0.00427,1.007389,-1.402664,0.210144,0.051285,-33.405346,23.195438,32.07288,22.9,0.36,0.51,35.48,31.838922,34.821018,0.2,43.0,4,7.05,189.35
360643486,1765370794401277,101225,12463400,-0.008532,0.00488,1.000064,-1.334,0.217773,0.058914,-33.405346,23.195438,32.07288,22.9,0.36,0.52,35.47,31.838922,34.821018,0.2,43.0,4,7.05,189.35
360647486,1765370794405277,101225,12463400,-0.008716,0.006223,0.994388,-1.334,0.233032,0.043655,-33.405346,23.195438,32.07288,22.9,0.35,0.52,35.47,31.838922,34.821018,0.2,43.0,4,7.05,189.35
360651486,1765370794409277,101225,12463400,-0.009021,0.00726,0.991214,-1.410294,0.248291,0.051285,-33.405346,23.195438,32.07288,22.9,0.35,0.52,35.46,31.838922,34.821018,0.2,43.0,4,7.05,189.35
360703486,1765370794461277,101225,12463400,-0.009509,0.003049,0.999759,-3.882217,0.606873,0.074173,-33.405346,23.195438,32.07288,22.9,0.31,0.54,35.41,31.838922,34.821018,0.2,43.0,4,7.05,189.35
360707486,1765370794465277,101225,12463400,-0.009082,0.000668,1.006229,-3.897476,0.63739,0.074173,-33.405346,23.195438,32.07288,22.89,0.3,0.54,35.4,31.838922,34.821018,0.2,43.0,4,7.05,189.35
360711486,1765370794469277,101225,12463400,-0.00957,-0.004214,1.031803,-3.5923,0.667908,0.081802,-33.405346,23.195438,32.07288,22.89,0.29,0.54,35.4,31.838922,34.821018,0.2,43.0,4,7.05,189.35
360715486,1765370794473277,101225,12463400,-0.009997,-0.003299,1.03754,-3.119278,0.446655,0.074173,-33.405346,23.195438,32.07288,22.9,0.27,0.55,35.39,31.838922,34.821018,0.2,43.0,4,7.05,189.35
360771486,1765370794529277,101225,12463400,0.00282,-0.020267,1.003971,-0.937271,0.217773,-2.077316,-32.869431,22.296391,31.899513,22.9,-0.08,0.44,35.31,31.838922,34.821018,0.2,43.0,4,7.05,189.35
360775486,1765370794533277,101225,12463400,-0.000415,-0.014407,1.00336,-0.845718,0.156738,-2.275681,-32.869431,22.296391,31.899513,22.9,-0.11,0.43,35.3,31.838922,34.821018,0.2,43.0,4,7.05,189.35
360779486,1765370794537277,101225,12463400,-0.003772,-0.008243,1.002689,-0.845718,0.164368,-2.428268,-32.869431,22.296391,31.899513,22.9,-0.12,0.43,35.3,31.838922,34.821018,0.2,43.0,4,7.05,189.35
360783486,1765370794541277,101225,12463400,-0.008349,-0.001773,1.002933,-0.792313,0.225403,-2.504562,-32.869431,22.296391,31.899513,22.89,-0.13,0.43,35.29,31.838922,34.821018,0.2,43.0,4,7.05,189.35
360847486,1765370794605277,101225,12463400,-0.010486,-0.001285,1.002201,-0.242996,0.095703,-0.826096,-32.869431,22.296391,31.899513,22.88,0.0,0.59,35.19,31.838922,34.821018,0.2,43.0,4,7.05,189.35
360851486,1765370794609277,101225,12463400,-0.010974,-0.00159,1.000797,-0.220108,0.095703,-0.818466,-32.869431,22.296391,31.899513,22.88,-0.01,0.59,35.18,31.838922,34.821018,0.2,43.0,4,7.05,189.35
360855486,1765370794613277,101225,12463400,-0.011218,-0.001956,1.000675,-0.212479,0.118591,-0.833725,-32.869431,22.296391,31.899513,22.89,-0.01,0.59,35.18,31.838922,34.821018,0.2,43.0,4,7.05,189.35
360859486,1765370794617277,101225,12463400,-0.010486,-0.002261,1.001346,-0.19722,0.110962,-0.818466,-32.869431,22.296391,31.899513,22.89,-0.02,0.6,35.17,31.838922,34.821018,0.2,43.0,4,7.05,189.35
360911486,1765370794669277,101225,12463400,-0.011767,0.003171,1.000248,-0.113297,0.103333,-0.574326,-30.368496,23.015629,30.859312,22.9,0.12,0.53,35.34,31.838922,34.821018,0.2,43.0,4,7.05,189.35
360915486,1765370794673277,101225,12463400,-0.01195,0.002683,1.00037,-0.105667,0.088074,-0.536179,-30.368496,23.015629,30.859312,22.9,0.13,0.52,35.36,31.838922,34.821018,0.2,43.0,4,7.05,189.35
360919486,1765370794677277,101225,12463400,-0.012134,0.002011,1.000675,-0.090408,0.065186,-0.528549,-30.368496,23.015629,30.859312,22.9,0.14,0.52,35.37,31.838922,34.821018,0.2,43.0,4,7.05,189.35
360923486,1765370794681277,101225,12463400,-0.011645,0.001523,1.000675,-0.082779,0.057556,-0.482773,-30.368496,23.015629,30.859312,22.9,0.15,0.52,35.39,31.838922,34.821018,0.2,43.0,4,7.05,189.35
360975486,1765370794733277,101225,12463400,-0.006701,-0.002566,1.000858,-0.052261,-0.033997,-0.566696,-30.368496,23.015629,30.859312,22.89,0.19,0.45,35.55,31.838922,34.821018,0.2,43.0,4,7.05,189.35
360979486,1765370794737277,101225,12463400,-0.006152,-0.004092,0.999637,-0.082779,-0.056885,-0.620102,-30.368496,23.015629,30.859312,22.89,0.19,0.44,35.56,31.838922,34.821018,0.2,43.0,4,7.05,189.35
360983486,1765370794741277,101225,12463400,-0.00664,-0.004703,1.001773,-0.052261,-0.049255,-0.673508,-30.368496,23.015629,30.859312,22.89,0.19,0.43,35.57,31.838922,34.821018,0.2,43.0,4,7.05,189.35
360987486,1765370794745277,101225,12463400,-0.007068,-0.004153,1.002079,-0.044632,-0.079773,-0.704025,-30.368496,23.015629,30.859312,22.9,0.19,0.42,35.58,31.838922,34.821018,0.2,43.0,4,7.05,189.35
361051486,1765370794809277,101225,12463400,-0.01073,0.002622,1.001346,-0.029373,-0.018738,-0.322556,-30.368496,23.015629,30.859312,22.9,0.26,0.41,35.75,31.838922,34.821018,0.2,43.0,4,7.05,189.35
361055486,1765370794813277,101225,12463400,-0.010913,0.002194,1.000553,-0.029373,-0.018738,-0.292038,-30.368496,23.015629,30.859312,22.9,0.27,0.41,35.76,31.838922,34.821018,0.2,43.0,4,7.05,189.35
361059486,1765370794817277,101225,12463400,-0.010913,0.00195,1.000675,-0.014114,-0.011108,-0.26152,-30.368496,23.015629,30.859312,22.91,0.27,0.41,35.77,31.838922,34.821018,0.2,43.0,4,7.05,189.35
361063486,1765370794821277,101225,12463400,-0.010913,0.001523,1.001468,0.008774,-0.011108,-0.238632,-30.368496,23.015629,30.859312,22.91,0.27,0.41,35.78,31.838922,34.821018,0.2,43.0,4,7.05,189.35
361119486,1765370794877277,101225,12463500,-0.009753,0.000607,1.000736,0.046921,-0.018738,-0.00975,-31.797602,21.577152,30.859312,22.91,0.26,0.42,35.88,31.838939,34.821024,0.2,43.0,4,7.05,189.35
361123486,1765370794881277,101225,12463500,-0.010119,0.000546,1.001468,0.05455,-0.011108,-0.00975,-31.797602,21.577152,30.859312,22.91,0.25,0.43,35.86,31.838939,34.821024,0.2,43.0,4,7.05,189.35
361127486,1765370794885277,101225,12463500,-0.009997,0.000302,1.00214,0.046921,-0.003479,-0.002121,-31.797602,21.577152,30.859312,22.91,0.24,0.44,35.85,31.838939,34.821024,0.2,43.0,4,7.05,189.35
361131486,1765370794889277,101225,12463500,-0.010058,0.00018,1.002506,0.06218,-0.011108,0.005508,-31.797602,21.577152,30.859312,22.91,0.22,0.45,35.84,31.838939,34.821024,0.2,43.0,4,7.05,189.35
361183486,1765370794941277,101225,12463500,-0.009753,-0.000369,1.000858,0.199509,-0.095032,0.020767,-31.797602,21.577152,30.859312,22.9,0.09,0.53,35.71,31.838939,34.821024,0.2,43.0,4,7.05,189.35
361187486,1765370794945277,101225,12463500,-0.009814,-0.000247,1.000614,0.214767,-0.102661,0.020767,-31.797602,21.577152,30.859312,22.9,0.08,0.53,35.7,31.838939,34.821024,0.2,43.0,4,7.05,189.35
361191486,1765370794949277,101225,12463500,-0.009509,-6.4e-05,1.000919,0.222397,-0.102661,0.051285,-31.797602,21.577152,30.859312,22.9,0.08,0.54,35.69,31.838939,34.821024,0.2,43.0,4,7.05,189.35
361195486,1765370794953277,101225,12463500,-0.009692,-6.4e-05,1.000492,0.222397,-0.110291,0.074173,-31.797602,21.577152,30.859312,22.9,0.07,0.54,35.68,31.838939,34.821024,0.2,43.0,4,7.05,189.35
361259486,1765370795017277,101225,12463500,-0.009509,0.000302,1.000064,0.222397,-0.110291,0.066544,-31.618963,23.195438,32.419613,22.9,0.02,0.56,35.63,31.838939,34.821024,0.2,43.5,4,7.06,189.35
361263486,1765370795021277,101225,12463500,-0.010058,0.000119,1.001835,0.214767,-0.11792,0.066544,-31.618963,23.195438,32.419613,22.9,0.03,0.56,35.63,31.838939,34.821024,0.2,43.5,4,7.06,189.35
361267486,1765370795025277,101225,12463500,-0.009692,-0.000186,1.002628,0.199509,-0.133179,0.058914,-31.618963,23.195438,32.419613,22.91,0.03,0.55,35.64,31.838939,34.821024,0.2,43.5,4,7.06,189.35
361271486,1765370795029277,101225,12463500,-0.009387,-0.000308,1.001529,0.18425,-0.11792,0.043655,-31.618963,23.195438,32.419613,22.91,0.03,0.55,35.64,31.838939,34.821024,0.2,43.5,4,7.06,189.35
361323486,1765370795081277,101225,12463500,-0.008899,0.000363,1.000492,-0.014114,-0.011108,0.013138,-31.618963,23.195438,32.419613,22.91,0.07,0.51,35.72,31.838939,34.821024,0.2,43.5,4,7.06,189.35
361327486,1765370795085277,101225,12463500,-0.00896,0.000424,0.999271,-0.021744,0.01178,0.028397,-31.618963,23.195438,32.419613,22.91,0.07,0.51,35.72,31.838939,34.821024,0.2,43.5,4,7.06,189.35
361331486,1765370795089277,101225,12463500,-0.009204,5.8e-05,0.999698,-0.037003,0.019409,0.028397,-31.618963,23.195438,32.419613,22.91,0.07,0.5,35.73,31.838939,34.821024,0.2,43.5,4,7.06,189.35
361335486,1765370795093277,101225,12463500,-0.009448,-0.000186,1.000858,-0.059891,0.034668,0.013138,-31.618963,23.195438,32.419613,22.91,0.08,0.5,35.73,31.838939,34.821024,0.2,43.5,4,7.06,189.35
361387486,1765370795145277,101225,12463500,-0.009326,0.000424,1.002201,-0.082779,0.01178,-0.025009,-31.618963,23.195438,31.032679,22.9,0.09,0.48,35.79,31.838939,34.821024,0.2,43.5,4,7.06,189.35
361391486,1765370795149277,101225,12463500,-0.009326,0.000119,1.002933,-0.06752,0.00415,-0.032639,-31.618963,23.195438,31.032679,22.9,0.1,0.48,35.8,31.838939,34.821024,0.2,43.5,4,7.06,189.35
361395486,1765370795153277,101225,12463500,-0.009082,0.00018,1.002262,-0.052261,-0.011108,-0.025009,-31.618963,23.195438,31.032679,22.9,0.1,0.48,35.8,31.838939,34.821024,0.2,43.5,4,7.06,189.35
361399486,1765370795157277,101225,12463500,-0.009143,0.000485,1.001468,-0.037003,0.00415,-0.00975,-31.618963,23.195438,31.032679,22.9,0.1,0.48,35.81,31.838939,34.821024,0.2,43.5,4,7.06,189.35
361455486,1765370795213277,101225,12463500,-0.008899,0.000607,1.000614,0.115585,0.01178,-0.025009,-31.618963,23.195438,31.032679,22.91,0.11,0.47,35.86,31.838939,34.821024,0.2,43.5,4,7.06,189.35
361459486,1765370795217277,101225,12463500,-0.009082,0.000546,1.000187,0.100326,0.019409,-0.040268,-31.618963,23.195438,31.032679,22.91,0.11,0.47,35.87,31.838939,34.821024,0.2,43.5,4,7.06,189.35
361463486,1765370795221277,101225,12463500,-0.009143,0.000913,0.999637,0.092697,0.00415,-0.047897,-31.618963,23.195438,31.032679,22.91,0.11,0.47,35.87,31.838939,34.821024,0.2,43.5,4,7.06,189.35
361467486,1765370795225277,101225,12463500,-0.009326,0.001096,0.999393,0.092697,-0.011108,-0.025009,-31.618963,23.195438,31.032679,22.91,0.11,0.47,35.87,31.838939,34.821024,0.2,43.5,4,7.06,189.35
361531486,1765370795289277,101225,12463500,-0.008532,0.000607,1.000309,0.031662,-0.018738,-0.032639,-31.083048,23.015629,30.165844,22.91,0.13,0.46,35.95,31.838939,34.821024,0.2,43.5,4,7.06,189.35
361535486,1765370795293277,101225,12463500,-0.008777,0.000119,0.999881,0.031662,-0.018738,-0.025009,-31.083048,23.015629,30.165844,22.91,0.13,0.46,35.95,31.838939,34.821024,0.2,43.5,4,7.06,189.35
361539486,1765370795297277,101225,12463500,-0.008716,5.8e-05,0.999942,0.024033,-0.026367,-0.002121,-31.083048,23.015629,30.165844,22.91,0.13,0.45,35.96,31.838939,34.821024,0.2,43.5,4,7.06,189.35
361543486,1765370795301277,101225,12463500,-0.008716,-6.4e-05,1.000003,0.031662,-0.018738,0.005508,-31.083048,23.015629,30.165844,22.91,0.13,0.45,35.96,31.838939,34.821024,0.2,43.5,4,7.06,189.35
361595486,1765370795353277,101225,12463500,-0.009021,0.000607,1.000064,0.06218,0.027039,-0.002121,-31.083048,23.015629,30.165844,22.91,0.13,0.45,36.02,31.838939,34.821024,0.2,43.5,4,7.06,189.35
361599486,1765370795357277,101225,12463500,-0.009082,0.000424,0.999637,0.05455,0.027039,-0.025009,-31.083048,23.015629,30.165844,22.91,0.13,0.45,36.03,31.838939,34.821024,0.2,43.5,4,7.06,189.35
361603486,1765370795361277,101225,12463500,-0.009204,0.000424,0.999576,0.05455,0.027039,-0.01738,-31.083048,23.015629,30.165844,22.91,0.13,0.45,36.03,31.838939,34.821024,0.2,43.5,4,7.06,189.35
361607486,1765370795365277,101225,12463500,-0.00957,0.000668,0.999881,0.039291,0.019409,-0.00975,-31.083048,23.015629,30.165844,22.91,0.13,0.45,36.03,31.838939,34.821024,0.2,43.5,4,7.06,189.35
361659486,1765370795417277,101225,12463500,-0.009387,0.000546,1.001468,0.046921,0.027039,-0.040268,-33.048069,23.555059,31.379412,22.91,0.1,0.48,36.01,31.838939,34.821024,0.2,43.5,4,7.06,189.35
361663486,1765370795421277,101225,12463500,-0.009326,0.000729,1.001529,0.046921,0.00415,-0.040268,-33.048069,23.555059,31.379412,22.91,0.09,0.48,36.01,31.838939,34.821024,0.2,43.5,4,7.06,189.35
361667486,1765370795425277,101225,12463500,-0.009509,0.000546,1.001529,0.031662,0.00415,-0.032639,-33.048069,23.555059,31.379412,22.91,0.09,0.49,36.01,31.838939,34.821024,0.2,43.5,4,7.06,189.35
361671486,1765370795429277,101225,12463500,-0.009326,0.000729,1.001224,0.008774,0.00415,-0.032639,-33.048069,23.555059,31.379412,22.91,0.09,0.49,36.0,31.838939,34.821024,0.2,43.5,4,7.06,189.35
361735486,1765370795493277,101225,12463500,-0.009082,0.000729,0.999393,-0.014114,0.01178,0.051285,-33.048069,23.555059,31.379412,22.9,0.05,0.51,35.97,31.838939,34.821024,0.2,43.5,4,7.06,189.35
361739486,1765370795497277,101225,12463500,-0.009021,0.000485,0.999759,-0.029373,0.01178,0.036026,-33.048069,23.555059,31.379412,22.9,0.04,0.51,35.97,31.838939,34.821024,0.2,43.5,4,7.06,189.35
361743486,1765370795501277,101225,12463500,-0.00896,0.000363,1.000003,-0.044632,0.01178,0.036026,-31.440325,23.015629,32.246246,22.9,0.04,0.51,35.97,31.838939,34.821024,0.2,43.5,4,7.06,189.35
361747486,1765370795505277,101225,12463500,-0.008899,0.000546,1.000736,-0.044632,0.019409,0.013138,-31.440325,23.015629,32.246246,22.9,0.05,0.51,35.97,31.838939,34.821024,0.2,43.5,4,7.06,189.35
361803486,1765370795561277,101225,12463500,-0.00896,0.000485,1.001651,-0.014114,0.034668,-0.025009,-31.440325,23.015629,32.246246,22.91,0.06,0.5,36.01,31.838939,34.821024,0.2,43.5,4,7.06,189.35
361807486,1765370795565277,101225,12463500,-0.009143,0.000302,1.00159,-0.006485,0.01178,-0.040268,-31.440325,23.015629,32.246246,22.92,0.06,0.5,36.02,31.838939,34.821024,0.2,43.5,4,7.06,189.35
361811486,1765370795569277,101225,12463500,-0.009143,0.00018,1.001896,-0.006485,0.01178,-0.025009,-31.440325,23.015629,32.246246,22.92,0.07,0.5,36.02,31.838939,34.821024,0.2,43.5,4,7.06,189.35
361815486,1765370795573277,101225,12463500,-0.009204,-3e-06,1.001712,0.001144,0.034668,-0.032639,-31.440325,23.015629,32.246246,22.91,0.07,0.5,36.02,31.838939,34.821024,0.2,43.5,4,7.06,189.35
361867486,1765370795625277,101225,12463500,-0.009448,0.000302,1.001835,0.046921,0.080444,-0.025009,-32.869431,23.734869,31.899513,22.92,0.07,0.49,36.05,31.838939,34.821024,0.2,43.5,4,7.06,189.35
361871486,1765370795629277,101225,12463500,-0.010058,0.000241,1.006046,0.016403,0.027039,-0.00975,-32.869431,23.734869,31.899513,22.92,0.06,0.5,36.05,31.838939,34.821024,0.2,43.5,4,7.06,189.35
361875486,1765370795633277,101225,12463500,-0.009509,0.000485,1.002689,-0.021744,-0.003479,-0.002121,-32.869431,23.734869,31.899513,22.91,0.06,0.5,36.05,31.838939,34.821024,0.2,43.5,4,7.06,189.35
361879486,1765370795637277,101225,12463500,-0.009204,0.000424,0.999332,-0.037003,0.049927,0.013138,-32.869431,23.734869,31.899513,22.91,0.06,0.5,36.05,31.838939,34.821024,0.2,43.5,4,7.06,189.35
361931486,1765370795689277,101225,12463500,-0.009875,0.000119,0.998478,0.016403,0.01178,-0.00975,-32.869431,23.734869,31.899513,22.92,0.05,0.51,36.05,31.838939,34.821024,0.2,43.5,4,7.06,189.35
361935486,1765370795693277,101225,12463500,-0.009448,0.000241,1.001163,0.024033,0.01178,-0.00975,-32.869431,23.734869,31.899513,22.92,0.05,0.51,36.05,31.838939,34.821024,0.2,43.5,4,7.06,189.35
361939486,1765370795697277,101225,12463500,-0.009692,0.000668,1.002323,0.024033,-0.011108,-0.002121,-32.869431,23.734869,31.899513,22.92,0.05,0.51,36.05,31.838939,34.821024,0.2,43.5,4,7.06,189.35
361943486,1765370795701277,101225,12463500,-0.009814,0.000546,1.001835,-0.006485,-0.018738,-0.002121,-32.869431,23.734869,31.899513,22.92,0.05,0.51,36.05,31.838939,34.821024,0.2,43.5,4,7.06,189.35
362007486,1765370795765277,101225,12463500,-0.008716,0.000424,1.001957,0.008774,0.019409,-0.070786,-32.869431,23.734869,31.899513,22.92,0.03,0.51,36.05,31.838939,34.821024,0.2,43.5,4,7.06,189.35
362011486,1765370795769277,101225,12463500,-0.00896,0.000729,1.002201,0.001144,-0.003479,-0.063156,-32.869431,23.734869,31.899513,22.91,0.03,0.51,36.05,31.838939,34.821024,0.2,43.5,4,7.06,189.35
362015486,1765370795773277,101225,12463500,-0.009021,0.000913,1.00159,-0.006485,-0.003479,-0.063156,-32.869431,23.734869,31.899513,22.91,0.03,0.51,36.05,31.838939,34.821024,0.2,43.5,4,7.06,189.35
362019486,1765370795777277,101225,12463500,-0.008777,0.000729,1.000797,0.001144,-0.011108,-0.055527,-32.869431,23.734869,31.899513,22.92,0.03,0.51,36.05,31.838939,34.821024,0.2,43.5,4,7.06,189.35
362071486,1765370795829277,101225,12463500,-0.009082,0.000424,1.000492,0.031662,0.01178,0.028397,-32.869431,23.734869,31.899513,22.92,0.03,0.51,36.05,31.838939,34.821024,0.2,43.5,4,7.06,189.35
362075487,1765370795833278,101225,12463500,-0.009143,0.000424,1.001102,0.039291,0.01178,0.013138,-32.869431,23.734869,31.899513,22.92,0.03,0.51,36.05,31.838939,34.821024,0.2,43.5,4,7.06,189.35
362079486,1765370795837277,101225,12463500,-0.009448,0.000302,1.001224,0.039291,-0.003479,0.005508,-32.869431,23.734869,31.899513,22.92,0.03,0.51,36.05,31.838939,34.821024,0.2,43.5,4,7.06,189.35
