RX_ESP_elapsed_us,PC_time_us,UTC_Date,UTC_Time,AccX,AccY,AccZ,GyroX,GyroY,GyroZ,MagX,MagY,MagZ,Temp,Roll,Pitch,Yaw,Lat,Lng,Speed_kmph,Alt_meters,Satellites,HDOP,Heading,REC,FileName
726488,1766652725369722,0,0,-0.0029,0.0003,1.0002,-0.0053,-0.0564,0.0021,-35.7276,5.3943,39.8744,23.98,-0.11,0.18,8.12,0.0,0.0,0.0,0.0,0,0.0,0.0,1,/data_0006-0.
623730488,1766652725373722,0,0,-0.0027,0.0002,1.0001,-0.0129,-0.0411,-0.0055,-35.7276,5.3943,39.8744,23.98,-0.11,0.17,8.12,0.0,0.0,0.0,0.0,0,0.0,0.0,1,/data_0006-0.
623734491,1766652725377725,0,0,-0.0024,0.0003,0.9996,0.0024,-0.0411,-0.0131,-35.7276,5.3943,39.8744,23.98,-0.1,0.17,8.13,0.0,0.0,0.0,0.0,0,0.0,0.0,1,/data_0006-0.
623774488,1766652725417722,0,0,-0.0029,-0.0001,0.9994,0.0024,-0.0258,-0.0208,-35.7276,5.3943,39.8744,23.97,-0.04,0.16,8.16,0.0,0.0,0.0,0.0,0,0.0,0.0,1,/data_0006-0.
623778236,1766652725421470,0,0,-0.0029,0.0,0.9993,0.01,-0.0335,-0.0436,-35.7276,5.3943,39.8744,23.97,-0.04,0.16,8.16,0.0,0.0,0.0,0.0,0,0.0,0.0,1,/data_0006-0.
623782492,1766652725425726,0,0,-0.003,-0.0001,0.9998,0.0024,-0.0411,-0.036,-35.7276,5.3943,39.8744,23.98,-0.03,0.16,8.17,0.0,0.0,0.0,0.0,0,0.0,0.0,1,/data_0006-0.
623786488,1766652725429722,0,0,-0.0028,0.0,1.0,0.01,-0.0335,-0.036,-35.7276,5.3943,39.8744,23.98,-0.03,0.16,8.17,0.0,0.0,0.0,0.0,0,0.0,0.0,1,/data_0006-0.
623842488,1766652725485722,0,0,-0.0027,0.0002,0.9999,0.0481,-0.0106,0.0174,-33.584,5.0347,38.1407,23.99,0.02,0.16,8.21,0.0,0.0,0.0,0.0,0,0.0,0.0,1,/data_0006-0.
623846488,1766652725489722,0,0,-0.0026,0.0,1.0003,0.0329,-0.0258,0.0098,-33.584,5.0347,38.1407,23.98,0.02,0.16,8.21,0.0,0.0,0.0,0.0,0,0.0,0.0,1,/data_0006-0.
623850488,1766652725493722,0,0,-0.0027,-0.0001,1.0007,0.0405,-0.0335,0.0021,-33.584,5.0347,38.1407,23.98,0.02,0.16,8.21,0.0,0.0,0.0,0.0,0,0.0,0.0,1,/data_0006-0.
623854488,1766652725497722,0,0,-0.0027,-0.0,1.001,0.0405,-0.0411,-0.0284,-33.584,5.0347,38.1407,23.98,0.02,0.16,8.21,0.0,0.0,0.0,0.0,0,0.0,0.0,1,/data_0006-0.
623894488,1766652725537722,0,0,-0.0027,0.0,1.0001,0.0329,-0.0564,-0.0436,-33.584,5.0347,38.1407,23.97,0.04,0.15,8.23,0.0,0.0,0.0,0.0,0,0.0,0.0,1,/data_0006-0.
623898488,1766652725541722,0,0,-0.0027,0.0,1.0001,0.0405,-0.064,-0.0589,-33.584,5.0347,38.1407,23.97,0.04,0.15,8.23,0.0,0.0,0.0,0.0,0,0.0,0.0,1,/data_0006-0.
623902488,1766652725545722,0,0,-0.0027,0.0001,1.0001,0.0329,-0.0564,-0.0513,-33.584,5.0347,38.1407,23.97,0.04,0.15,8.23,0.0,0.0,0.0,0.0,0,0.0,0.0,1,/data_0006-0.
623906488,1766652725549722,0,0,-0.0023,0.0002,0.9998,0.0329,-0.0564,-0.0513,-33.584,5.0347,38.1407,23.97,0.04,0.15,8.24,0.0,0.0,0.0,0.0,0,0.0,0.0,1,/data_0006-0.
623959488,1766652725602722,0,0,-0.0027,0.0007,1.0003,0.0329,-0.0335,-0.0131,-33.584,5.0347,38.1407,23.97,0.05,0.15,8.26,0.0,0.0,0.0,0.0,0,0.0,0.0,1,/data_0006-0.
623963488,1766652725606722,0,0,-0.0027,0.0005,1.0001,0.0405,-0.0182,-0.036,-33.584,5.0347,38.1407,23.98,0.05,0.15,8.26,0.0,0.0,0.0,0.0,0,0.0,0.0,1,/data_0006-0.
623967488,1766652725610722,0,0,-0.0027,0.0005,1.0,0.0405,-0.0258,-0.0208,-33.9413,3.2366,39.1809,23.98,0.04,0.15,8.25,0.0,0.0,0.0,0.0,0,0.0,0.0,1,/data_0006-0.
623971488,1766652725614722,0,0,-0.0024,0.0004,1.0004,0.0329,-0.0258,-0.0131,-33.9413,3.2366,39.1809,23.98,0.02,0.15,8.24,0.0,0.0,0.0,0.0,0,0.0,0.0,1,/data_0006-0.
624015488,1766652725658722,0,0,-0.0027,0.0005,1.0006,0.0329,-0.0182,0.0327,-33.9413,3.2366,39.1809,23.98,-0.15,0.17,8.06,0.0,0.0,0.0,0.0,0,0.0,0.0,1,/data_0006-0.
624019488,1766652725662722,0,0,-0.0029,0.0007,1.0003,0.01,-0.0258,0.025,-33.9413,3.2366,39.1809,23.98,-0.16,0.17,8.04,0.0,0.0,0.0,0.0,0,0.0,0.0,1,/data_0006-0.
624023488,1766652725666722,0,0,-0.0027,0.0005,1.0003,0.0176,-0.0182,0.025,-33.9413,3.2366,39.1809,23.98,-0.17,0.17,8.03,0.0,0.0,0.0,0.0,0,0.0,0.0,1,/data_0006-0.
624027488,1766652725670722,0,0,-0.0027,0.0005,1.0003,0.0176,-0.0335,0.025,-33.9413,3.2366,39.1809,23.98,-0.18,0.17,8.01,0.0,0.0,0.0,0.0,0,0.0,0.0,1,/data_0006-0.
624075488,1766652725718722,0,0,-0.0031,-0.0002,0.9995,0.0481,-0.003,0.0021,-33.9413,3.2366,39.1809,23.98,-0.28,0.19,7.85,0.0,0.0,0.0,0.0,0,0.0,0.0,1,/data_0006-0.
624079234,1766652725722468,0,0,-0.0029,-0.0003,0.9992,0.0558,-0.0258,0.0098,-33.9413,3.2366,39.1809,23.98,-0.29,0.19,7.84,0.0,0.0,0.0,0.0,0,0.0,0.0,1,/data_0006-0.
624083262,1766652725726496,0,0,-0.0029,-0.0003,0.999,0.0405,-0.0182,-0.0055,-33.9413,3.2366,39.1809,23.97,-0.3,0.19,7.82,0.0,0.0,0.0,0.0,0,0.0,0.0,1,/data_0006-0.
624087235,1766652725730469,0,0,-0.0026,-0.0002,0.9991,0.0329,-0.0335,-0.0055,-33.9413,3.2366,39.1809,23.97,-0.3,0.19,7.81,0.0,0.0,0.0,0.0,0,0.0,0.0,1,/data_0006-0.
624135488,1766652725778722,0,0,-0.0028,0.0002,0.9992,0.0405,-0.0411,-0.0513,-33.4053,4.4952,39.0076,23.98,-0.21,0.18,7.81,0.0,0.0,0.0,0.0,0,0.0,0.0,1,/data_0006-0.
624139488,1766652725782722,0,0,-0.0029,0.0001,0.9988,0.0558,-0.0411,-0.0436,-33.4053,4.4952,39.0076,23.98,-0.2,0.18,7.81,0.0,0.0,0.0,0.0,0,0.0,0.0,1,/data_0006-0.
624143488,1766652725786722,0,0,-0.0029,0.0002,0.999,0.0481,-0.0564,-0.0284,-33.4053,4.4952,39.0076,23.97,-0.19,0.18,7.81,0.0,0.0,0.0,0.0,0,0.0,0.0,1,/data_0006-0.
624147488,1766652725790722,0,0,-0.003,0.0,0.9993,0.0405,-0.0335,-0.036,-33.4053,4.4952,39.0076,23.98,-0.19,0.17,7.82,0.0,0.0,0.0,0.0,0,0.0,0.0,1,/data_0006-0.
624199488,1766652725842722,0,0,-0.0027,0.0002,0.9995,0.0253,-0.0487,0.0174,-33.4053,4.4952,39.0076,23.98,-0.12,0.16,7.82,0.0,0.0,0.0,0.0,0,0.0,0.0,1,/data_0006-0.
624203488,1766652725846722,0,0,-0.0026,0.0002,0.9996,0.0176,-0.0487,0.0098,-33.4053,4.4952,39.0076,23.98,-0.12,0.16,7.82,0.0,0.0,0.0,0.0,0,0.0,0.0,1,/data_0006-0.
624207488,1766652725850722,0,0,-0.0025,0.0002,0.9993,0.0329,-0.0411,0.0021,-33.4053,4.4952,39.0076,23.98,-0.11,0.16,7.82,0.0,0.0,0.0,0.0,0,0.0,0.0,1,/data_0006-0.
624211488,1766652725854722,0,0,-0.0023,0.0,0.9993,0.0253,-0.0411,0.0021,-33.4053,4.4952,39.0076,23.97,-0.11,0.16,7.82,0.0,0.0,0.0,0.0,0,0.0,0.0,1,/data_0006-0.
624263488,1766652725906722,0,0,-0.0026,-0.0003,1.0008,0.0329,-0.0258,0.0174,-32.5122,5.7539,37.794,23.98,0.07,0.13,7.98,0.0,0.0,0.0,0.0,0,0.0,0.0,1,/data_0006-0.
624267488,1766652725910722,0,0,-0.0022,-0.0001,1.0006,0.0176,-0.0258,0.0174,-32.5122,5.7539,37.794,23.98,0.08,0.13,7.99,0.0,0.0,0.0,0.0,0,0.0,0.0,1,/data_0006-0.
624271488,1766652725914722,0,0,-0.0023,0.0,1.0007,0.0176,-0.0258,0.0174,-32.5122,5.7539,37.794,23.98,0.09,0.12,8.01,0.0,0.0,0.0,0.0,0,0.0,0.0,1,/data_0006-0.
624275488,1766652725918722,0,0,-0.0024,0.0002,1.0006,0.0024,-0.0258,0.0479,-32.5122,5.7539,37.794,23.98,0.1,0.12,8.02,0.0,0.0,0.0,0.0,0,0.0,0.0,1,/data_0006-0.
624319488,1766652725962722,0,0,-0.0023,-0.0,1.0001,0.01,-0.0182,0.0098,-32.5122,5.7539,37.794,23.99,0.2,0.11,8.14,0.0,0.0,0.0,0.0,0,0.0,0.0,1,/data_0006-0.
624323488,1766652725966722,0,0,-0.0025,0.0001,1.0001,0.0024,-0.0258,0.0174,-32.5122,5.7539,37.794,23.98,0.2,0.11,8.15,0.0,0.0,0.0,0.0,0,0.0,0.0,1,/data_0006-0.
624327488,1766652725970722,0,0,-0.0024,0.0002,1.0004,0.0176,-0.0258,-0.0131,-32.5122,5.7539,37.794,23.98,0.21,0.11,8.16,0.0,0.0,0.0,0.0,0,0.0,0.0,1,/data_0006-0.
624331488,1766652725974722,0,0,-0.0023,0.0005,1.0006,0.0253,-0.0335,0.0174,-32.5122,5.7539,37.794,23.98,0.21,0.1,8.17,0.0,0.0,0.0,0.0,0,0.0,0.0,1,/data_0006-0.
624383234,1766652726026468,0,0,-0.0022,-0.0003,1.001,-0.0205,-0.0182,0.0098,-32.5122,5.7539,37.794,23.98,0.27,0.1,8.3,0.0,0.0,0.0,0.0,0,0.0,0.0,1,/data_0006-0.
624387488,1766652726030722,0,0,-0.0021,-0.0003,1.0011,-0.0205,-0.003,0.0098,-32.5122,5.7539,37.794,23.98,0.27,0.1,8.31,0.0,0.0,0.0,0.0,0,0.0,0.0,1,/data_0006-0.
624391235,1766652726034469,0,0,-0.0024,-0.0004,1.0015,-0.0129,0.0123,-0.0055,-32.5122,5.7539,37.794,23.98,0.27,0.1,8.32,0.0,0.0,0.0,0.0,0,0.0,0.0,1,/data_0006-0.
624395234,1766652726038468,0,0,-0.0024,-0.0001,1.0013,-0.0129,0.0047,-0.0208,-32.5122,5.7539,37.794,23.99,0.27,0.1,8.33,0.0,0.0,0.0,0.0,0,0.0,0.0,1,/data_0006-0.
624439488,1766652726082722,0,0,-0.0023,0.0003,0.9994,0.01,-0.0106,-0.036,-32.5122,5.7539,37.794,23.98,0.29,0.09,8.42,0.0,0.0,0.0,0.0,0,0.0,0.0,1,/data_0006-0.
624443242,1766652726086476,0,0,-0.0021,0.0002,0.9997,0.01,-0.0106,-0.0208,-32.5122,5.7539,37.794,23.98,0.29,0.09,8.43,0.0,0.0,0.0,0.0,0,0.0,0.0,1,/data_0006-0.
624447488,1766652726090722,0,0,-0.002,0.0003,0.9995,0.0024,-0.0182,-0.0131,-32.5122,5.7539,37.794,23.98,0.3,0.09,8.44,0.0,0.0,0.0,0.0,0,0.0,0.0,1,/data_0006-0.
624451235,1766652726094469,0,0,-0.0021,-0.0,0.9996,0.0024,-0.0182,-0.0055,-32.5122,5.7539,37.794,23.98,0.3,0.09,8.45,0.0,0.0,0.0,0.0,0,0.0,0.0,1,/data_0006-0.
624503488,1766652726146722,0,0,-0.0026,0.0007,1.0005,0.0329,-0.0258,0.025,-35.3704,5.0347,38.4875,23.98,0.2,0.1,8.44,0.0,0.0,0.0,0.0,0,0.0,0.0,1,/data_0006-0.
624507488,1766652726150722,0,0,-0.0026,0.0005,1.0006,0.0253,-0.0335,0.0174,-35.3704,5.0347,38.4875,23.97,0.19,0.1,8.44,0.0,0.0,0.0,0.0,0,0.0,0.0,1,/data_0006-0.
624511488,1766652726154722,0,0,-0.0022,0.0004,1.0003,0.0329,-0.0182,-0.0055,-35.3704,5.0347,38.4875,23.98,0.19,0.11,8.44,0.0,0.0,0.0,0.0,0,0.0,0.0,1,/data_0006-0.
624515488,1766652726158722,0,0,-0.0019,0.0004,0.9999,0.0329,-0.0182,0.0021,-35.3704,5.0347,38.4875,23.98,0.18,0.11,8.43,0.0,0.0,0.0,0.0,0,0.0,0.0,1,/data_0006-0.
624559488,1766652726202722,0,0,-0.0022,-0.0001,0.9993,0.0481,-0.0411,0.0174,-35.3704,5.0347,38.4875,23.97,0.11,0.12,8.4,0.0,0.0,0.0,0.0,0,0.0,0.0,1,/data_0006-0.
624563488,1766652726206722,0,0,-0.0021,-0.0001,0.9998,0.0405,-0.0335,0.0098,-35.3704,5.0347,38.4875,23.97,0.1,0.12,8.4,0.0,0.0,0.0,0.0,0,0.0,0.0,1,/data_0006-0.
624567488,1766652726210722,0,0,-0.0021,-0.0,1.0,0.0329,-0.0564,0.0327,-35.3704,5.0347,38.4875,23.98,0.09,0.12,8.4,0.0,0.0,0.0,0.0,0,0.0,0.0,1,/data_0006-0.
624571488,1766652726214722,0,0,-0.0021,0.0003,0.9999,0.0405,-0.0487,0.0403,-35.3704,5.0347,38.4875,23.98,0.09,0.12,8.39,0.0,0.0,0.0,0.0,0,0.0,0.0,1,/data_0006-0.
624623488,1766652726266722,0,0,-0.0031,0.0005,0.9999,0.0481,0.0123,-0.0284,-34.2985,6.4731,39.1809,23.99,0.17,0.11,8.49,0.0,0.0,0.0,0.0,0,0.0,0.0,1,/data_0006-0.
624628487,1766652726271721,0,0,-0.0031,0.0007,0.9989,0.0329,0.0123,-0.0284,-34.2985,6.4731,39.1809,23.99,0.18,0.11,8.5,0.0,0.0,0.0,0.0,0,0.0,0.0,1,/data_0006-0.
624632489,1766652726275723,0,0,-0.0032,0.0007,0.999,0.0405,-0.003,-0.0208,-34.2985,6.4731,39.1809,23.99,0.19,0.11,8.52,0.0,0.0,0.0,0.0,0,0.0,0.0,1,/data_0006-0.
624636488,1766652726279722,0,0,-0.003,0.0004,0.9993,0.0405,-0.0182,-0.0208,-34.2985,6.4731,39.1809,23.99,0.2,0.11,8.53,0.0,0.0,0.0,0.0,0,0.0,0.0,1,/data_0006-0.
624680488,1766652726323722,0,0,-0.0027,0.0002,0.9985,0.0634,-0.003,0.0174,-34.2985,6.4731,39.1809,23.99,0.27,0.11,8.66,0.0,0.0,0.0,0.0,0,0.0,0.0,1,/data_0006-0.
624684243,1766652726327477,0,0,-0.0024,-0.0,0.9985,0.0558,-0.0106,0.0098,-34.2985,6.4731,39.1809,23.99,0.27,0.11,8.67,0.0,0.0,0.0,0.0,0,0.0,0.0,1,/data_0006-0.
624688234,1766652726331468,0,0,-0.0026,-0.0003,0.9987,0.0481,-0.0106,0.0021,-34.2985,6.4731,39.1809,23.98,0.28,0.1,8.68,0.0,0.0,0.0,0.0,0,0.0,0.0,1,/data_0006-0.
624692488,1766652726335722,0,0,-0.0026,-0.0001,0.9989,0.0405,-0.0182,0.0021,-34.2985,6.4731,39.1809,23.97,0.28,0.1,8.69,0.0,0.0,0.0,0.0,0,0.0,0.0,1,/data_0006-0.
624744488,1766652726387722,0,0,-0.002,0.0001,1.0006,0.0176,-0.0182,0.0021,-33.9413,5.0347,38.8342,24.0,0.23,0.11,8.73,0.0,0.0,0.0,0.0,0,0.0,0.0,1,/data_0006-0.
624748242,1766652726391476,0,0,-0.0023,0.0002,1.0003,0.0253,-0.0182,0.0021,-33.9413,5.0347,38.8342,23.99,0.22,0.11,8.73,0.0,0.0,0.0,0.0,0,0.0,0.0,1,/data_0006-0.
624752488,1766652726395722,0,0,-0.0023,0.0001,1.0001,-0.0053,-0.0182,0.0174,-33.9413,5.0347,38.8342,23.99,0.21,0.11,8.72,0.0,0.0,0.0,0.0,0,0.0,0.0,1,/data_0006-0.
624756235,1766652726399469,0,0,-0.0024,-0.0002,1.0,-0.0129,-0.0106,0.0174,-33.9413,5.0347,38.8342,23.98,0.2,0.11,8.72,0.0,0.0,0.0,0.0,0,0.0,0.0,1,/data_0006-0.
624800488,1766652726443722,0,0,-0.0027,-0.0001,0.999,0.0405,-0.0335,-0.0055,-33.9413,5.0347,38.8342,23.99,0.12,0.12,8.69,0.0,0.0,0.0,0.0,0,0.0,0.0,1,/data_0006-0.
624804488,1766652726447722,0,0,-0.0029,-0.0,0.999,0.0405,-0.0258,-0.0055,-33.9413,5.0347,38.8342,23.99,0.11,0.13,8.69,0.0,0.0,0.0,0.0,0,0.0,0.0,1,/data_0006-0.
624808488,1766652726451722,0,0,-0.0026,-0.0002,0.999,0.0405,-0.0182,-0.0208,-33.9413,5.0347,38.8342,23.99,0.1,0.13,8.69,0.0,0.0,0.0,0.0,0,0.0,0.0,1,/data_0006-0.
624812488,1766652726455722,0,0,-0.0027,-0.0002,0.9989,0.0253,-0.0182,-0.0055,-33.9413,5.0347,38.8342,24.0,0.1,0.13,8.69,0.0,0.0,0.0,0.0,0,0.0,0.0,1,/data_0006-0.
624864488,1766652726507722,0,0,-0.0025,0.0006,1.0001,-0.0282,-0.0182,0.0479,-34.1199,5.2145,38.6608,23.98,0.06,0.14,8.67,0.0,0.0,0.0,0.0,0,0.0,0.0,1,/data_0006-0.
624868488,1766652726511722,0,0,-0.0026,0.0005,1.0003,-0.0282,-0.0335,0.025,-34.1199,5.2145,38.6608,23.99,0.06,0.14,8.67,0.0,0.0,0.0,0.0,0,0.0,0.0,1,/data_0006-0.
624872488,1766652726515722,0,0,-0.0026,-0.0,0.9999,-0.0205,-0.0258,0.0021,-34.1199,5.2145,38.6608,23.99,0.06,0.14,8.67,0.0,0.0,0.0,0.0,0,0.0,0.0,1,/data_0006-0.
624876488,1766652726519722,0,0,-0.0027,-0.0001,1.0003,-0.0129,-0.0258,0.025,-34.1199,5.2145,38.6608,23.99,0.05,0.14,8.67,0.0,0.0,0.0,0.0,0,0.0,0.0,1,/data_0006-0.
624916487,1766652726559721,0,0,-0.0023,0.0003,1.0001,0.0024,-0.0182,-0.0284,-34.1199,5.2145,38.6608,23.99,0.04,0.13,8.67,0.0,0.0,0.0,0.0,0,0.0,0.0,1,/data_0006-0.
624920488,1766652726563722,0,0,-0.0026,0.0006,0.9997,-0.0053,-0.0182,-0.036,-34.1199,5.2145,38.6608,23.99,0.04,0.13,8.67,0.0,0.0,0.0,0.0,0,0.0,0.0,1,/data_0006-0.
624924488,1766652726567722,0,0,-0.0024,0.0005,0.9993,0.01,-0.0411,-0.0284,-34.1199,5.2145,38.6608,23.98,0.04,0.13,8.67,0.0,0.0,0.0,0.0,0,0.0,0.0,1,/data_0006-0.
624928488,1766652726571722,0,0,-0.0023,0.0002,0.9992,0.01,-0.0564,-0.0284,-34.1199,5.2145,38.6608,23.98,0.04,0.13,8.67,0.0,0.0,0.0,0.0,0,0.0,0.0,1,/data_0006-0.
624984488,1766652726627722,0,0,-0.0022,0.001,0.9999,0.01,-0.0335,-0.0131,-34.1199,5.2145,38.6608,23.98,0.03,0.14,8.67,0.0,0.0,0.0,0.0,0,0.0,0.0,1,/data_0006-0.
624988488,1766652726631722,0,0,-0.0024,0.0008,0.9996,0.0176,-0.0411,-0.0131,-34.1199,5.2145,38.6608,23.98,0.03,0.14,8.67,0.0,0.0,0.0,0.0,0,0.0,0.0,1,/data_0006-0.
624992488,1766652726635722,0,0,-0.0026,0.0006,0.9993,0.0253,-0.0411,-0.036,-34.1199,5.2145,38.6608,23.98,0.03,0.14,8.67,0.0,0.0,0.0,0.0,0,0.0,0.0,1,/data_0006-0.
624996488,1766652726639722,0,0,-0.0026,0.0005,0.999,0.0253,-0.0258,-0.0284,-34.1199,5.2145,38.6608,23.98,0.03,0.14,8.67,0.0,0.0,0.0,0.0,0,0.0,0.0,1,/data_0006-0.
625036234,1766652726679468,0,0,-0.0026,0.0007,0.9985,-0.0129,0.0276,-0.0208,-34.1199,5.2145,38.6608,23.98,0.03,0.14,8.67,0.0,0.0,0.0,0.0,0,0.0,0.0,1,/data_0006-0.
625040488,1766652726683722,0,0,-0.0027,0.0007,0.9986,-0.0053,0.0123,-0.0131,-34.1199,5.2145,38.6608,23.97,0.03,0.14,8.67,0.0,0.0,0.0,0.0,0,0.0,0.0,1,/data_0006-0.
625044488,1766652726687722,0,0,-0.0027,0.0009,0.999,-0.0205,0.0123,-0.0208,-34.1199,5.2145,38.6608,23.97,0.03,0.14,8.67,0.0,0.0,0.0,0.0,0,0.0,0.0,1,/data_0006-0.
625048488,1766652726691722,0,0,-0.0028,0.0009,0.9987,-0.0205,0.0047,-0.036,-34.1199,5.2145,38.6608,23.97,0.04,0.14,8.67,0.0,0.0,0.0,0.0,0,0.0,0.0,1,/data_0006-0.
625104488,1766652726747722,0,0,-0.0023,0.0008,1.0002,0.0024,-0.003,0.0403,-33.0481,5.2145,39.0076,23.98,0.04,0.15,8.67,0.0,0.0,0.0,0.0,0,0.0,0.0,1,/data_0006-0.
625108488,1766652726751722,0,0,-0.0025,0.0009,1.0,0.0176,-0.0106,0.0327,-33.0481,5.2145,39.0076,23.97,0.05,0.15,8.68,0.0,0.0,0.0,0.0,0,0.0,0.0,1,/data_0006-0.
625112488,1766652726755722,0,0,-0.0025,0.0009,0.9998,0.0253,-0.0182,0.0403,-33.0481,5.2145,39.0076,23.98,0.05,0.15,8.68,0.0,0.0,0.0,0.0,0,0.0,0.0,1,/data_0006-0.
625116488,1766652726759722,0,0,-0.0026,0.0007,1.0,0.0405,-0.0258,0.0327,-33.0481,5.2145,39.0076,23.98,0.05,0.15,8.68,0.0,0.0,0.0,0.0,0,0.0,0.0,1,/data_0006-0.
625156234,1766652726799468,0,0,-0.0026,0.001,1.0,0.0253,-0.0411,0.0403,-33.0481,5.2145,39.0076,23.97,0.06,0.15,8.69,0.0,0.0,0.0,0.0,0,0.0,0.0,1,/data_0006-0.
625160234,1766652726803468,0,0,-0.0024,0.0008,1.0001,0.01,-0.0335,0.025,-33.0481,5.2145,39.0076,23.97,0.06,0.15,8.7,0.0,0.0,0.0,0.0,0,0.0,0.0,1,/data_0006-0.
625164234,1766652726807468,0,0,-0.0023,0.001,1.0001,0.0176,-0.0335,0.0174,-33.0481,5.2145,39.0076,23.98,0.07,0.14,8.7,0.0,0.0,0.0,0.0,0,0.0,0.0,1,/data_0006-0.
625168234,1766652726811468,0,0,-0.0023,0.001,0.9999,0.01,-0.0182,-0.0055,-33.0481,5.2145,39.0076,23.98,0.07,0.14,8.7,0.0,0.0,0.0,0.0,0,0.0,0.0,1,/data_0006-0.
625220488,1766652726863722,0,0,-0.0022,-0.0003,0.9999,0.0024,-0.0258,-0.0208,-34.8344,4.8549,40.0478,23.98,0.07,0.14,8.71,0.0,0.0,0.0,0.0,0,0.0,0.0,1,/data_0006-0.
625224488,1766652726867722,0,0,-0.0021,-0.0001,0.9998,0.0024,-0.0258,-0.0131,-34.8344,4.8549,40.0478,23.98,0.06,0.14,8.71,0.0,0.0,0.0,0.0,0,0.0,0.0,1,/data_0006-0.
625228488,1766652726871722,0,0,-0.0019,-0.0004,1.0002,0.01,-0.0182,0.0021,-34.8344,4.8549,40.0478,23.98,0.05,0.14,8.7,0.0,0.0,0.0,0.0,0,0.0,0.0,1,/data_0006-0.
625276488,1766652726919722,0,0,-0.0018,-0.0,0.9999,0.0024,-0.0411,0.0098,-34.8344,4.8549,40.0478,23.98,-0.02,0.14,8.65,0.0,0.0,0.0,0.0,0,0.0,0.0,1,/data_0006-0.
625280488,1766652726923722,0,0,-0.0021,-0.0001,0.9993,-0.0053,-0.0335,0.025,-34.8344,4.8549,40.0478,23.98,-0.02,0.14,8.64,0.0,0.0,0.0,0.0,0,0.0,0.0,1,/data_0006-0.
625284488,1766652726927722,0,0,-0.0023,-0.0,0.9995,-0.0053,-0.0411,0.025,-34.8344,4.8549,40.0478,23.98,-0.03,0.14,8.64,0.0,0.0,0.0,0.0,0,0.0,0.0,1,/data_0006-0.
625288488,1766652726931722,0,0,-0.002,-0.0002,0.9996,-0.0053,-0.0411,0.025,-34.8344,4.8549,40.0478,23.98,-0.03,0.14,8.64,0.0,0.0,0.0,0.0,0,0.0,0.0,1,/data_0006-0.
625320488,1766652726963722,0,0,-0.0021,-0.0003,1.0004,-0.0205,-0.0258,0.0555,-34.8344,4.8549,40.0478,23.98,-0.06,0.14,8.61,0.0,0.0,0.0,0.0,0,0.0,0.0,1,/data_0006-0.
625324488,1766652726967722,0,0,-0.002,-0.0,1.0,-0.0282,-0.0182,0.0403,-34.8344,4.8549,40.0478,23.98,-0.06,0.14,8.6,0.0,0.0,0.0,0.0,0,0.0,0.0,1,/data_0006-0.
625328488,1766652726971722,0,0,-0.0021,-0.0001,0.9996,-0.0205,-0.0182,0.0403,-34.8344,4.8549,40.0478,23.98,-0.07,0.14,8.6,0.0,0.0,0.0,0.0,0,0.0,0.0,1,/data_0006-0.
625332488,1766652726975722,0,0,-0.002,0.0002,0.9996,-0.0129,-0.0182,0.0479,-34.8344,4.8549,40.0478,23.98,-0.07,0.14,8.6,0.0,0.0,0.0,0.0,0,0.0,0.0,1,/data_0006-0.
625384488,1766652727027722,0,0,-0.0021,0.0002,0.9997,0.0329,-0.0106,0.0403,-34.8344,4.8549,40.0478,23.98,-0.08,0.14,8.55,0.0,0.0,0.0,0.0,0,0.0,0.0,1,/data_0006-0.
625388488,1766652727031722,0,0,-0.0023,0.0003,0.9995,0.0329,-0.0106,0.0327,-34.8344,4.8549,40.0478,23.99,-0.09,0.14,8.55,0.0,0.0,0.0,0.0,0,0.0,0.0,1,/data_0006-0.
625392488,1766652727035722,0,0,-0.0021,0.0004,0.9997,0.0405,-0.0182,0.025,-34.8344,4.8549,40.0478,23.99,-0.09,0.14,8.55,0.0,0.0,0.0,0.0,0,0.0,0.0,1,/data_0006-0.
625396488,1766652727039722,0,0,-0.002,0.0003,0.9995,0.0329,-0.0258,0.0174,-34.8344,4.8549,40.0478,23.99,-0.09,0.14,8.54,0.0,0.0,0.0,0.0,0,0.0,0.0,1,/data_0006-0.
625452488,1766652727095722,0,0,-0.002,0.0007,1.0006,0.0253,-0.0335,0.0174,-34.8344,4.8549,40.0478,23.98,-0.08,0.14,8.5,0.0,0.0,0.0,0.0,0,0.0,0.0,1,/data_0006-0.
625456489,1766652727099723,0,0,-0.002,0.0007,1.0004,0.0176,-0.0411,0.0021,-34.8344,4.8549,40.0478,23.98,-0.08,0.14,8.5,0.0,0.0,0.0,0.0,0,0.0,0.0,1,/data_0006-0.
625460488,1766652727103722,0,0,-0.0018,0.0008,0.9999,0.0253,-0.0335,0.0098,-34.8344,4.8549,40.0478,23.98,-0.08,0.14,8.5,0.0,0.0,0.0,0.0,0,0.0,0.0,1,/data_0006-0.
625464488,1766652727107722,0,0,-0.0018,0.0007,0.9995,0.0253,-0.0258,-0.0208,-34.8344,4.8549,40.0478,23.98,-0.08,0.14,8.49,0.0,0.0,0.0,0.0,0,0.0,0.0,1,/data_0006-0.
625504488,1766652727147722,0,0,-0.0028,0.0003,1.0003,0.0024,-0.0182,-0.0208,-34.6558,5.0347,38.4875,23.98,-0.06,0.14,8.48,0.0,0.0,0.0,0.0,0,0.0,0.0,1,/data_0006-0.
625508488,1766652727151722,0,0,-0.0028,0.0003,1.0007,0.0176,-0.0182,-0.0208,-34.6558,5.0347,38.4875,23.98,-0.06,0.14,8.48,0.0,0.0,0.0,0.0,0,0.0,0.0,1,/data_0006-0.
625512488,1766652727155722,0,0,-0.0027,0.0002,1.0006,0.01,-0.0335,-0.0208,-34.6558,5.0347,38.4875,23.98,-0.06,0.14,8.48,0.0,0.0,0.0,0.0,0,0.0,0.0,1,/data_0006-0.
625516488,1766652727159722,0,0,-0.0024,0.0003,1.0006,0.01,-0.0411,-0.0208,-34.6558,5.0347,38.4875,23.99,-0.06,0.14,8.48,0.0,0.0,0.0,0.0,0,0.0,0.0,1,/data_0006-0.
625568488,1766652727211722,0,0,-0.0029,0.0005,1.0,0.0253,-0.0106,0.0327,-34.6558,5.0347,38.4875,23.99,-0.04,0.14,8.47,0.0,0.0,0.0,0.0,0,0.0,0.0,1,/data_0006-0.
625572488,1766652727215722,0,0,-0.0028,0.0003,0.9994,0.0481,-0.0182,0.0174,-34.6558,5.0347,38.4875,23.99,-0.04,0.14,8.47,0.0,0.0,0.0,0.0,0,0.0,0.0,1,/data_0006-0.
625576488,1766652727219722,0,0,-0.0027,0.0002,0.9993,0.0405,-0.0182,0.0021,-34.6558,5.0347,38.4875,23.99,-0.04,0.14,8.47,0.0,0.0,0.0,0.0,0,0.0,0.0,1,/data_0006-0.
625580488,1766652727223722,0,0,-0.0026,0.0001,0.999,0.0481,-0.003,0.0021,-34.6558,5.0347,38.4875,23.99,-0.04,0.14,8.47,0.0,0.0,0.0,0.0,0,0.0,0.0,1,/data_0006-0.
625624488,1766652727267722,0,0,-0.0021,0.0003,1.0003,0.0558,-0.0335,-0.0284,-33.9413,5.3943,39.5277,23.98,0.0,0.14,8.49,0.0,0.0,0.0,0.0,0,0.0,0.0,1,/data_0006-0.
625628488,1766652727271722,0,0,-0.0021,0.0004,1.0005,0.0481,-0.0182,-0.0055,-33.9413,5.3943,39.5277,23.98,0.0,0.14,8.49,0.0,0.0,0.0,0.0,0,0.0,0.0,1,/data_0006-0.
625632488,1766652727275722,0,0,-0.002,0.0006,1.0003,0.0481,-0.0106,0.0021,-33.9413,5.3943,39.5277,23.98,0.01,0.14,8.5,0.0,0.0,0.0,0.0,0,0.0,0.0,1,/data_0006-0.
625636488,1766652727279722,0,0,-0.0018,0.0009,1.0001,0.0558,-0.0106,0.0021,-33.9413,5.3943,39.5277,23.98,0.01,0.14,8.5,0.0,0.0,0.0,0.0,0,0.0,0.0,1,/data_0006-0.
625688488,1766652727331722,0,0,-0.0029,-0.0003,0.9993,-0.0205,-0.0335,-0.0131,-33.9413,5.3943,39.5277,23.98,0.05,0.13,8.54,0.0,0.0,0.0,0.0,0,0.0,0.0,1,/data_0006-0.
625692488,1766652727335722,0,0,-0.0029,-0.0003,0.9989,-0.0129,-0.0411,-0.0131,-33.9413,5.3943,39.5277,23.99,0.05,0.13,8.54,0.0,0.0,0.0,0.0,0,0.0,0.0,1,/data_0006-0.
625696488,1766652727339722,0,0,-0.0027,-0.0003,0.9991,-0.0129,-0.0487,-0.0208,-33.9413,5.3943,39.5277,23.98,0.05,0.13,8.55,0.0,0.0,0.0,0.0,0,0.0,0.0,1,/data_0006-0.
625700488,1766652727343722,0,0,-0.0024,-0.0001,0.999,-0.0205,-0.0411,-0.0131,-33.9413,5.3943,39.5277,23.98,0.05,0.13,8.55,0.0,0.0,0.0,0.0,0,0.0,0.0,1,/data_0006-0.
625744488,1766652727387722,0,0,-0.0026,-0.0002,1.0004,0.01,-0.0411,0.0021,-33.9413,5.3943,38.4875,23.98,0.06,0.13,8.58,0.0,0.0,0.0,0.0,0,0.0,0.0,1,/data_0006-0.
625748234,1766652727391468,0,0,-0.0024,-0.0004,1.0002,0.0024,-0.0335,0.0174,-33.9413,5.3943,38.4875,23.98,0.06,0.13,8.58,0.0,0.0,0.0,0.0,0,0.0,0.0,1,/data_0006-0.
625752235,1766652727395469,0,0,-0.0023,-0.0004,1.0,0.01,-0.0182,0.0098,-33.9413,5.3943,38.4875,23.98,0.06,0.13,8.58,0.0,0.0,0.0,0.0,0,0.0,0.0,1,/data_0006-0.
625756234,1766652727399468,0,0,-0.0024,-0.0004,1.0,0.01,-0.0182,0.0021,-33.9413,5.3943,38.4875,23.99,0.06,0.13,8.59,0.0,0.0,0.0,0.0,0,0.0,0.0,1,/data_0006-0.
625808488,1766652727451722,0,0,-0.0024,-0.0003,0.9998,0.0253,-0.0335,0.0021,-33.9413,5.3943,38.4875,23.98,0.06,0.13,8.62,0.0,0.0,0.0,0.0,0,0.0,0.0,1,/data_0006-0.
625812488,1766652727455722,0,0,-0.0024,-0.0003,0.9995,0.0024,-0.0106,0.0098,-33.9413,5.3943,38.4875,23.99,0.06,0.13,8.62,0.0,0.0,0.0,0.0,0,0.0,0.0,1,/data_0006-0.
625816488,1766652727459722,0,0,-0.0023,-0.0003,0.9996,0.01,-0.003,0.0021,-33.9413,5.3943,38.4875,23.99,0.06,0.13,8.62,0.0,0.0,0.0,0.0,0,0.0,0.0,1,/data_0006-0.
625820488,1766652727463722,0,0,-0.0022,-0.0005,0.9996,0.01,-0.003,0.0098,-33.9413,5.3943,38.4875,23.99,0.06,0.13,8.62,0.0,0.0,0.0,0.0,0,0.0,0.0,1,/data_0006-0.
625864488,1766652727507722,0,0,-0.0028,-0.0003,0.9992,0.0253,-0.0335,-0.0131,-35.0131,4.675,38.1407,23.98,0.03,0.13,8.61,0.0,0.0,0.0,0.0,0,0.0,0.0,1,/data_0006-0.
625868488,1766652727511722,0,0,-0.0025,-0.0003,0.9994,0.0176,-0.0487,-0.0131,-35.0131,4.675,38.1407,23.99,0.02,0.13,8.6,0.0,0.0,0.0,0.0,0,0.0,0.0,1,/data_0006-0.
625872488,1766652727515722,0,0,-0.0026,-0.0003,0.9994,0.0176,-0.0564,0.0021,-35.0131,4.675,38.1407,23.99,0.01,0.13,8.6,0.0,0.0,0.0,0.0,0,0.0,0.0,1,/data_0006-0.
625876488,1766652727519722,0,0,-0.0027,-0.0001,0.9994,0.0176,-0.0564,0.0021,-35.0131,4.675,38.1407,23.99,0.01,0.14,8.59,0.0,0.0,0.0,0.0,0,0.0,0.0,1,/data_0006-0.
625928488,1766652727571722,0,0,-0.0026,-0.0004,0.9994,0.0558,-0.0411,-0.0055,-35.0131,4.675,38.1407,23.98,-0.07,0.15,8.52,0.0,0.0,0.0,0.0,0,0.0,0.0,1,/data_0006-0.
625932488,1766652727575722,0,0,-0.0027,-0.0008,0.9993,0.0405,-0.0411,-0.0055,-35.0131,4.675,38.1407,23.98,-0.07,0.15,8.51,0.0,0.0,0.0,0.0,0,0.0,0.0,1,/data_0006-0.
625936488,1766652727579722,0,0,-0.0026,-0.0005,0.9995,0.0405,-0.0411,-0.0055,-35.0131,4.675,38.1407,23.98,-0.07,0.15,8.51,0.0,0.0,0.0,0.0,0,0.0,0.0,1,/data_0006-0.
625940488,1766652727583722,0,0,-0.0024,-0.0008,0.9996,0.0405,-0.0564,0.0021,-35.0131,4.675,38.1407,23.99,-0.08,0.15,8.5,0.0,0.0,0.0,0.0,0,0.0,0.0,1,/data_0006-0.
625984488,1766652727627722,0,0,-0.0023,0.0001,0.9992,0.01,-0.0335,0.0021,-34.4772,4.8549,38.6608,23.98,-0.1,0.15,8.46,0.0,0.0,0.0,0.0,0,0.0,0.0,1,/data_0006-0.
625988488,1766652727631722,0,0,-0.002,0.0002,0.9994,0.0024,-0.0487,-0.036,-34.4772,4.8549,38.6608,23.98,-0.1,0.15,8.46,0.0,0.0,0.0,0.0,0,0.0,0.0,1,/data_0006-0.
625992488,1766652727635722,0,0,-0.0019,0.0003,0.9995,0.01,-0.0411,-0.036,-34.4772,4.8549,38.6608,23.98,-0.1,0.15,8.46,0.0,0.0,0.0,0.0,0,0.0,0.0,1,/data_0006-0.
625996488,1766652727639722,0,0,-0.0018,0.0005,0.9994,0.01,-0.0411,-0.036,-34.4772,4.8549,38.6608,23.98,-0.1,0.15,8.45,0.0,0.0,0.0,0.0,0,0.0,0.0,1,/data_0006-0.
626048488,1766652727691722,0,0,-0.0022,0.0003,0.9994,0.01,-0.003,-0.0055,-34.4772,4.8549,38.6608,23.99,-0.09,0.14,8.43,0.0,0.0,0.0,0.0,0,0.0,0.0,1,/data_0006-0.
626052242,1766652727695476,0,0,-0.0021,0.0003,0.9994,0.0176,-0.0182,-0.0131,-34.4772,4.8549,38.6608,23.99,-0.08,0.14,8.43,0.0,0.0,0.0,0.0,0,0.0,0.0,1,/data_0006-0.
626056234,1766652727699468,0,0,-0.0022,0.0001,0.9994,0.0176,-0.0106,-0.0131,-34.4772,4.8549,38.6608,23.99,-0.08,0.14,8.43,0.0,0.0,0.0,0.0,0,0.0,0.0,1,/data_0006-0.
626060234,1766652727703468,0,0,-0.0021,0.0002,0.9995,0.0024,-0.0258,-0.0131,-34.4772,4.8549,38.6608,23.99,-0.08,0.14,8.42,0.0,0.0,0.0,0.0,0,0.0,0.0,1,/data_0006-0.
626112234,1766652727755468,0,0,-0.0025,0.0009,1.0012,0.0024,-0.0106,-0.0208,-33.584,4.675,39.1809,23.99,-0.08,0.14,8.4,0.0,0.0,0.0,0.0,0,0.0,0.0,1,/data_0006-0.
626116234,1766652727759468,0,0,-0.0026,0.0009,1.0012,0.0176,-0.0258,-0.0055,-33.584,4.675,39.1809,23.99,-0.08,0.14,8.4,0.0,0.0,0.0,0.0,0,0.0,0.0,1,/data_0006-0.
626120234,1766652727763468,0,0,-0.0025,0.001,1.0009,0.0024,-0.0258,-0.0055,-33.584,4.675,39.1809,23.99,-0.08,0.14,8.39,0.0,0.0,0.0,0.0,0,0.0,0.0,1,/data_0006-0.
626124488,1766652727767722,0,0,-0.0026,0.0011,1.0004,0.0024,-0.0106,-0.0131,-33.584,4.675,39.1809,23.99,-0.08,0.14,8.39,0.0,0.0,0.0,0.0,0,0.0,0.0,1,/data_0006-0.
626169488,1766652727812722,0,0,-0.0029,0.0002,1.0006,0.01,-0.003,-0.0131,-33.584,4.675,39.1809,23.98,-0.07,0.15,8.37,0.0,0.0,0.0,0.0,0,0.0,0.0,1,/data_0006-0.
626173488,1766652727816722,0,0,-0.0028,0.0003,1.0,0.01,0.0047,-0.0208,-33.584,4.675,39.1809,23.98,-0.07,0.15,8.36,0.0,0.0,0.0,0.0,0,0.0,0.0,1,/data_0006-0.
626177488,1766652727820722,0,0,-0.0028,0.0004,1.0001,0.01,0.0047,-0.036,-33.584,4.675,39.1809,23.98,-0.07,0.15,8.36,0.0,0.0,0.0,0.0,0,0.0,0.0,1,/data_0006-0.
626181488,1766652727824722,0,0,-0.0028,0.0002,1.0001,0.0176,-0.0106,-0.0436,-33.584,4.675,39.1809,23.98,-0.07,0.15,8.36,0.0,0.0,0.0,0.0,0,0.0,0.0,1,/data_0006-0.
626233488,1766652727876722,0,0,-0.0027,0.0002,0.9992,0.01,-0.0258,-0.0208,-34.1199,4.8549,37.2739,23.98,-0.07,0.16,8.34,0.0,0.0,0.0,0.0,0,0.0,0.0,1,/data_0006-0.
626237488,1766652727880722,0,0,-0.0026,0.0003,0.999,0.0024,-0.0182,-0.0131,-34.1199,4.8549,37.2739,23.98,-0.07,0.16,8.34,0.0,0.0,0.0,0.0,0,0.0,0.0,1,/data_0006-0.
626241488,1766652727884722,0,0,-0.0025,0.0003,0.9993,0.0024,-0.003,-0.0131,-34.1199,4.8549,37.2739,23.98,-0.07,0.16,8.34,0.0,0.0,0.0,0.0,0,0.0,0.0,1,/data_0006-0.
626245488,1766652727888722,0,0,-0.0024,0.0001,0.999,0.01,-0.0106,-0.0208,-34.1199,4.8549,37.2739,23.98,-0.07,0.16,8.33,0.0,0.0,0.0,0.0,0,0.0,0.0,1,/data_0006-0.
626289488,1766652727932722,0,0,-0.0021,-0.0001,1.0004,0.01,-0.0335,-0.0513,-34.1199,4.8549,37.2739,23.99,-0.06,0.15,8.32,0.0,0.0,0.0,0.0,0,0.0,0.0,1,/data_0006-0.
626293488,1766652727936722,0,0,-0.002,0.0001,1.0002,0.0253,-0.0335,-0.0436,-34.1199,4.8549,37.2739,23.99,-0.05,0.15,8.32,0.0,0.0,0.0,0.0,0,0.0,0.0,1,/data_0006-0.
626297488,1766652727940722,0,0,-0.0021,-0.0001,1.0,0.0329,-0.0335,-0.0436,-34.1199,4.8549,37.2739,23.99,-0.05,0.15,8.32,0.0,0.0,0.0,0.0,0,0.0,0.0,1,/data_0006-0.
626301488,1766652727944722,0,0,-0.0024,-0.0005,0.9997,0.0253,-0.0335,-0.0513,-34.1199,4.8549,37.2739,23.99,-0.05,0.15,8.32,0.0,0.0,0.0,0.0,0,0.0,0.0,1,/data_0006-0.
626353237,1766652727996471,0,0,-0.0024,-0.0002,0.9993,0.01,-0.0182,0.0021,-34.1199,4.8549,37.2739,23.99,-0.06,0.15,8.31,0.0,0.0,0.0,0.0,0,0.0,0.0,1,/data_0006-0.
626357234,1766652728000468,0,0,-0.0023,-0.0002,0.9996,-0.0053,-0.0106,0.0021,-34.1199,4.8549,37.2739,23.99,-0.06,0.15,8.31,0.0,0.0,0.0,0.0,0,0.0,0.0,1,/data_0006-0.
626361243,1766652728004477,0,0,-0.0023,0.0001,1.0001,-0.0053,-0.0106,-0.0131,-34.1199,4.8549,37.2739,23.98,-0.06,0.15,8.31,0.0,0.0,0.0,0.0,0,0.0,0.0,1,/data_0006-0.
626365488,1766652728008722,0,0,-0.0025,0.0002,1.0006,0.0024,-0.003,0.0098,-34.1199,4.8549,37.2739,23.98,-0.05,0.15,8.31,0.0,0.0,0.0,0.0,0,0.0,0.0,1,/data_0006-0.
626409235,1766652728052469,0,0,-0.0025,-0.0002,0.9994,0.01,0.0047,0.0021,-34.1199,4.8549,37.2739,23.99,-0.05,0.15,8.3,0.0,0.0,0.0,0.0,0,0.0,0.0,1,/data_0006-0.
626413234,1766652728056468,0,0,-0.0027,-0.0004,0.9992,0.01,-0.0106,0.0021,-34.1199,4.8549,37.2739,23.98,-0.05,0.15,8.3,0.0,0.0,0.0,0.0,0,0.0,0.0,1,/data_0006-0.
626417234,1766652728060468,0,0,-0.0026,-0.0004,0.9989,0.0176,-0.003,-0.0055,-34.1199,4.8549,37.2739,23.98,-0.05,0.15,8.3,0.0,0.0,0.0,0.0,0,0.0,0.0,1,/data_0006-0.
626421488,1766652728064722,0,0,-0.0028,0.0,0.9988,0.0024,0.0047,-0.0131,-34.1199,4.8549,37.2739,23.98,-0.05,0.15,8.3,0.0,0.0,0.0,0.0,0,0.0,0.0,1,/data_0006-0.
626473488,1766652728116722,0,0,-0.0033,-0.0003,0.9997,0.0405,0.0123,-0.0436,-34.1199,4.8549,37.2739,23.99,-0.04,0.16,8.29,0.0,0.0,0.0,0.0,0,0.0,0.0,1,/data_0006-0.
626477488,1766652728120722,0,0,-0.0032,-0.0003,0.9997,0.0329,0.0047,-0.0436,-33.2267,3.9558,38.1407,23.99,-0.05,0.16,8.28,0.0,0.0,0.0,0.0,0,0.0,0.0,1,/data_0006-0.
626481488,1766652728124722,0,0,-0.003,-0.0005,0.9997,0.0253,-0.0106,-0.0589,-33.2267,3.9558,38.1407,23.99,-0.06,0.16,8.27,0.0,0.0,0.0,0.0,0,0.0,0.0,1,/data_0006-0.
626485488,1766652728128722,0,0,-0.0028,-0.0002,0.9996,0.0329,-0.0106,-0.0665,-33.2267,3.9558,38.1407,23.99,-0.07,0.16,8.26,0.0,0.0,0.0,0.0,0,0.0,0.0,1,/data_0006-0.
626529488,1766652728172722,0,0,-0.0022,0.0,1.0,0.0024,-0.0335,-0.0589,-33.2267,3.9558,38.1407,23.98,-0.13,0.17,8.17,0.0,0.0,0.0,0.0,0,0.0,0.0,1,/data_0006-0.
626533488,1766652728176722,0,0,-0.0021,0.0001,1.0,-0.0205,-0.0182,-0.0742,-33.2267,3.9558,38.1407,23.98,-0.14,0.17,8.16,0.0,0.0,0.0,0.0,0,0.0,0.0,1,/data_0006-0.
626537488,1766652728180722,0,0,-0.002,0.0001,1.0006,-0.0358,-0.0182,-0.0665,-33.2267,3.9558,38.1407,23.98,-0.14,0.17,8.16,0.0,0.0,0.0,0.0,0,0.0,0.0,1,/data_0006-0.
626541488,1766652728184722,0,0,-0.0025,0.0001,1.0003,-0.0282,-0.0106,-0.0589,-33.2267,3.9558,38.1407,23.98,-0.14,0.17,8.15,0.0,0.0,0.0,0.0,0,0.0,0.0,1,/data_0006-0.
626593488,1766652728236722,0,0,-0.0029,-0.0003,0.9992,-0.0129,-0.0182,-0.0436,-33.2267,3.9558,38.1407,23.98,-0.19,0.18,8.06,0.0,0.0,0.0,0.0,0,0.0,0.0,1,/data_0006-0.
626597488,1766652728240722,0,0,-0.0031,-0.0004,0.9993,-0.0053,-0.0258,-0.0436,-33.2267,3.9558,38.1407,23.99,-0.19,0.18,8.05,0.0,0.0,0.0,0.0,0,0.0,0.0,1,/data_0006-0.
626601488,1766652728244722,0,0,-0.0029,-0.0004,0.9991,0.01,-0.0182,-0.0436,-32.8694,5.3943,38.1407,23.99,-0.19,0.18,8.06,0.0,0.0,0.0,0.0,0,0.0,0.0,1,/data_0006-0.
626605488,1766652728248722,0,0,-0.0026,-0.0002,0.999,0.0024,-0.0182,-0.0436,-32.8694,5.3943,38.1407,23.98,-0.17,0.18,8.06,0.0,0.0,0.0,0.0,0,0.0,0.0,1,/data_0006-0.
626657488,1766652728300722,0,0,-0.0024,0.0003,0.9998,-0.0205,-0.0487,-0.036,-32.8694,5.3943,38.1407,23.99,-0.01,0.15,8.17,0.0,0.0,0.0,0.0,0,0.0,0.0,1,/data_0006-0.
626661488,1766652728304722,0,0,-0.0029,0.0005,1.0001,-0.0358,-0.0411,-0.0284,-32.8694,5.3943,38.1407,23.99,-0.0,0.15,8.18,0.0,0.0,0.0,0.0,0,0.0,0.0,1,/data_0006-0.
626665488,1766652728308722,0,0,-0.0031,0.0005,0.9996,-0.0358,-0.0258,-0.0284,-32.8694,5.3943,38.1407,23.99,0.01,0.15,8.19,0.0,0.0,0.0,0.0,0,0.0,0.0,1,/data_0006-0.
626669488,1766652728312722,0,0,-0.0031,0.0004,0.9995,-0.0358,-0.0487,-0.0131,-32.8694,5.3943,38.1407,23.99,0.01,0.15,8.2,0.0,0.0,0.0,0.0,0,0.0,0.0,1,/data_0006-0.
626713234,1766652728356468,0,0,-0.0026,-0.0002,0.9996,0.0176,-0.0106,0.025,-32.8694,5.3943,38.1407,23.98,0.08,0.14,8.27,0.0,0.0,0.0,0.0,0,0.0,0.0,1,/data_0006-0.
626717488,1766652728360722,0,0,-0.0026,-0.0003,0.9991,-0.0053,-0.0182,-0.0055,-32.8694,5.3943,38.1407,23.99,0.08,0.14,8.27,0.0,0.0,0.0,0.0,0,0.0,0.0,1,/data_0006-0.
626721236,1766652728364470,0,0,-0.0026,-0.0001,0.9987,0.0024,-0.0258,-0.0131,-32.8694,5.3943,38.1407,23.98,0.09,0.14,8.28,0.0,0.0,0.0,0.0,0,0.0,0.0,1,/data_0006-0.
626725234,1766652728368468,0,0,-0.0026,-0.0003,0.9986,-0.0053,-0.0182,-0.0131,-32.8694,5.3943,38.1407,23.98,0.09,0.14,8.29,0.0,0.0,0.0,0.0,0,0.0,0.0,1,/data_0006-0.
626777488,1766652728420722,0,0,-0.0024,-0.0007,0.9991,0.0176,-0.0335,0.0174,-32.8694,5.3943,38.1407,23.99,0.13,0.12,8.36,0.0,0.0,0.0,0.0,0,0.0,0.0,1,/data_0006-0.
626781236,1766652728424470,0,0,-0.0024,-0.0004,0.9991,0.01,-0.0258,0.025,-32.8694,5.3943,38.1407,23.99,0.13,0.12,8.36,0.0,0.0,0.0,0.0,0,0.0,0.0,1,/data_0006-0.
626785234,1766652728428468,0,0,-0.0025,-0.0004,0.9986,0.01,-0.0258,0.0327,-32.8694,5.3943,38.1407,23.98,0.13,0.12,8.37,0.0,0.0,0.0,0.0,0,0.0,0.0,1,/data_0006-0.
626789488,1766652728432722,0,0,-0.0026,-0.0001,0.9989,0.0024,-0.0182,0.0174,-32.8694,5.3943,38.1407,23.98,0.13,0.12,8.38,0.0,0.0,0.0,0.0,0,0.0,0.0,1,/data_0006-0.
626833488,1766652728476722,0,0,-0.0029,0.0004,1.0003,0.0024,-0.0487,-0.0055,-32.8694,5.3943,38.1407,23.97,0.15,0.12,8.43,0.0,0.0,0.0,0.0,0,0.0,0.0,1,/data_0006-0.
626837488,1766652728480722,0,0,-0.0029,0.0005,1.0003,-0.0053,-0.0411,-0.0055,-32.8694,5.3943,38.1407,23.97,0.15,0.12,8.43,0.0,0.0,0.0,0.0,0,0.0,0.0,1,/data_0006-0.
626841488,1766652728484722,0,0,-0.0027,0.0008,1.0006,-0.0053,-0.0411,-0.0055,-32.8694,5.3943,38.1407,23.98,0.15,0.12,8.44,0.0,0.0,0.0,0.0,0,0.0,0.0,1,/data_0006-0.
626845488,1766652728488722,0,0,-0.0028,0.001,1.0006,0.0024,-0.0182,-0.0131,-32.8694,5.3943,38.1407,23.98,0.15,0.12,8.44,0.0,0.0,0.0,0.0,0,0.0,0.0,1,/data_0006-0.
626897488,1766652728540722,0,0,-0.0021,0.0005,0.9991,0.0024,-0.0182,0.025,-32.5122,5.0347,37.794,23.97,0.14,0.13,8.46,0.0,0.0,0.0,0.0,0,0.0,0.0,1,/data_0006-0.
626901488,1766652728544722,0,0,-0.0021,0.0005,0.999,0.0176,-0.0258,0.0403,-32.5122,5.0347,37.794,23.98,0.14,0.13,8.46,0.0,0.0,0.0,0.0,0,0.0,0.0,1,/data_0006-0.
626905488,1766652728548722,0,0,-0.002,0.0005,0.9989,0.01,-0.003,0.0327,-32.5122,5.0347,37.794,23.98,0.13,0.13,8.47,0.0,0.0,0.0,0.0,0,0.0,0.0,1,/data_0006-0.
626909488,1766652728552722,0,0,-0.002,0.0005,0.9996,0.0176,-0.0106,0.0327,-32.5122,5.0347,37.794,23.97,0.13,0.13,8.47,0.0,0.0,0.0,0.0,0,0.0,0.0,1,/data_0006-0.
626953488,1766652728596722,0,0,-0.0022,0.0002,0.9981,0.01,-0.0182,0.0021,-32.5122,5.0347,37.794,23.99,0.12,0.12,8.48,0.0,0.0,0.0,0.0,0,0.0,0.0,1,/data_0006-0.
626958487,1766652728601721,0,0,-0.0024,0.0005,0.9986,0.01,-0.0182,0.0174,-32.5122,5.0347,37.794,23.99,0.12,0.12,8.48,0.0,0.0,0.0,0.0,0,0.0,0.0,1,/data_0006-0.
626962488,1766652728605722,0,0,-0.0024,0.0003,0.999,0.0176,-0.0106,0.0174,-32.5122,5.0347,37.794,23.99,0.11,0.12,8.48,0.0,0.0,0.0,0.0,0,0.0,0.0,1,/data_0006-0.
626966488,1766652728609722,0,0,-0.0026,0.0001,0.9994,0.0176,-0.0106,0.0174,-32.5122,5.0347,37.794,23.98,0.11,0.12,8.49,0.0,0.0,0.0,0.0,0,0.0,0.0,1,/data_0006-0.
627018235,1766652728661469,0,0,-0.0028,-0.0001,0.9993,-0.0053,-0.0335,0.025,-33.9413,6.1135,38.8342,23.98,0.18,0.11,8.59,0.0,0.0,0.0,0.0,0,0.0,0.0,1,/data_0006-0.
627022488,1766652728665722,0,0,-0.0033,-0.0,0.9993,-0.0205,-0.0335,0.0098,-33.9413,6.1135,38.8342,23.98,0.18,0.11,8.6,0.0,0.0,0.0,0.0,0,0.0,0.0,1,/data_0006-0.
627026489,1766652728669723,0,0,-0.0031,-0.0001,0.9995,-0.0358,-0.0258,0.0098,-33.9413,6.1135,38.8342,23.98,0.19,0.11,8.61,0.0,0.0,0.0,0.0,0,0.0,0.0,1,/data_0006-0.
627030488,1766652728673722,0,0,-0.0029,-0.0003,0.9993,-0.0282,-0.0106,0.025,-33.9413,6.1135,38.8342,23.98,0.19,0.11,8.62,0.0,0.0,0.0,0.0,0,0.0,0.0,1,/data_0006-0.
627070234,1766652728713468,0,0,-0.0026,0.0007,0.9984,-0.0053,-0.0411,-0.0055,-33.9413,6.1135,38.8342,23.98,0.23,0.11,8.7,0.0,0.0,0.0,0.0,0,0.0,0.0,1,/data_0006-0.
627074236,1766652728717470,0,0,-0.0027,0.0008,0.9989,-0.0129,-0.0564,0.0098,-33.9413,6.1135,38.8342,23.98,0.23,0.11,8.71,0.0,0.0,0.0,0.0,0,0.0,0.0,1,/data_0006-0.
627078234,1766652728721468,0,0,-0.0029,0.0009,0.9997,0.0024,-0.0335,0.0021,-33.9413,6.1135,38.8342,23.98,0.24,0.11,8.72,0.0,0.0,0.0,0.0,0,0.0,0.0,1,/data_0006-0.
627082488,1766652728725722,0,0,-0.0027,0.0007,0.9995,-0.0053,-0.0182,0.0021,-33.9413,6.1135,38.8342,23.98,0.24,0.11,8.73,0.0,0.0,0.0,0.0,0,0.0,0.0,1,/data_0006-0.
627138488,1766652728781722,0,0,-0.0025,-0.0003,1.0012,0.01,-0.0258,-0.0055,-33.2267,3.5962,38.1407,23.99,0.03,0.14,8.6,0.0,0.0,0.0,0.0,0,0.0,0.0,1,/data_0006-0.
627142488,1766652728785722,0,0,-0.0027,-0.0003,1.0011,0.0176,-0.0182,0.0021,-33.2267,3.5962,38.1407,23.99,0.02,0.14,8.59,0.0,0.0,0.0,0.0,0,0.0,0.0,1,/data_0006-0.
627146488,1766652728789722,0,0,-0.0026,-0.0,1.001,-0.0053,-0.0182,0.0098,-33.2267,3.5962,38.1407,23.99,-0.0,0.14,8.57,0.0,0.0,0.0,0.0,0,0.0,0.0,1,/data_0006-0.
627150488,1766652728793722,0,0,-0.0026,-0.0001,1.0007,-0.0129,-0.0182,0.0021,-33.2267,3.5962,38.1407,23.99,-0.02,0.14,8.56,0.0,0.0,0.0,0.0,0,0.0,0.0,1,/data_0006-0.
627190488,1766652728833722,0,0,-0.0028,0.0006,1.0001,0.0024,-0.003,0.025,-33.2267,3.5962,38.1407,23.99,-0.15,0.16,8.42,0.0,0.0,0.0,0.0,0,0.0,0.0,1,/data_0006-0.
627194488,1766652728837722,0,0,-0.0029,0.0008,1.0002,0.01,0.0047,0.0403,-33.2267,3.5962,38.1407,23.99,-0.15,0.17,8.41,0.0,0.0,0.0,0.0,0,0.0,0.0,1,/data_0006-0.
627198488,1766652728841722,0,0,-0.0031,0.0008,1.0001,0.01,-0.0182,0.0403,-33.2267,3.5962,38.1407,23.99,-0.16,0.17,8.4,0.0,0.0,0.0,0.0,0,0.0,0.0,1,/data_0006-0.
627202488,1766652728845722,0,0,-0.0032,0.0008,1.0003,0.01,-0.0182,0.025,-33.2267,3.5962,38.1407,23.99,-0.17,0.17,8.38,0.0,0.0,0.0,0.0,0,0.0,0.0,1,/data_0006-0.
627254488,1766652728897722,0,0,-0.0023,0.0003,1.0005,0.0176,-0.003,0.0403,-33.7626,4.8549,39.3543,23.98,-0.17,0.17,8.32,0.0,0.0,0.0,0.0,0,0.0,0.0,1,/data_0006-0.
627258488,1766652728901722,0,0,-0.0025,0.0005,1.0003,0.01,-0.0106,0.0479,-33.7626,4.8549,39.3543,23.98,-0.16,0.17,8.32,0.0,0.0,0.0,0.0,0,0.0,0.0,1,/data_0006-0.
627262488,1766652728905722,0,0,-0.0024,0.0005,1.0004,-0.0053,-0.0182,0.0479,-33.7626,4.8549,39.3543,23.98,-0.15,0.17,8.32,0.0,0.0,0.0,0.0,0,0.0,0.0,1,/data_0006-0.
627266488,1766652728909722,0,0,-0.0026,0.0002,1.0006,-0.0205,-0.0258,0.0403,-33.7626,4.8549,39.3543,23.97,-0.15,0.17,8.32,0.0,0.0,0.0,0.0,0,0.0,0.0,1,/data_0006-0.
627310488,1766652728953722,0,0,-0.0026,-0.0,0.9998,0.0253,-0.0106,-0.0208,-33.7626,4.8549,39.3543,23.98,-0.1,0.16,8.32,0.0,0.0,0.0,0.0,0,0.0,0.0,1,/data_0006-0.
627314488,1766652728957722,0,0,-0.0023,-0.0001,1.0,0.0176,-0.0106,-0.0284,-33.7626,4.8549,39.3543,23.98,-0.1,0.16,8.32,0.0,0.0,0.0,0.0,0,0.0,0.0,1,/data_0006-0.
627318488,1766652728961722,0,0,-0.0024,-0.0001,0.9996,0.0329,0.0047,-0.0208,-33.7626,4.8549,39.3543,23.98,-0.09,0.16,8.32,0.0,0.0,0.0,0.0,0,0.0,0.0,1,/data_0006-0.
627322488,1766652728965722,0,0,-0.0022,0.0002,0.9994,0.01,-0.003,-0.0284,-33.7626,4.8549,39.3543,23.98,-0.09,0.16,8.32,0.0,0.0,0.0,0.0,0,0.0,0.0,1,/data_0006-0.
627374238,1766652729017472,0,0,-0.0025,0.0002,1.0005,0.0176,-0.0182,-0.0284,-33.9413,6.8328,39.1809,23.99,0.05,0.14,8.43,0.0,0.0,0.0,0.0,0,0.0,0.0,1,/data_0006-0.
627378234,1766652729021468,0,0,-0.0027,0.0001,1.001,0.0253,-0.0258,-0.0513,-33.9413,6.8328,39.1809,23.98,0.07,0.13,8.45,0.0,0.0,0.0,0.0,0,0.0,0.0,1,/data_0006-0.
627382488,1766652729025722,0,0,-0.0032,0.0001,1.0018,0.0253,-0.0258,-0.0589,-33.9413,6.8328,39.1809,23.99,0.08,0.13,8.46,0.0,0.0,0.0,0.0,0,0.0,0.0,1,/data_0006-0.
627386488,1766652729029722,0,0,-0.0033,0.0001,1.0019,0.01,-0.0106,-0.0589,-33.9413,6.8328,39.1809,23.99,0.1,0.13,8.48,0.0,0.0,0.0,0.0,0,0.0,0.0,1,/data_0006-0.
627442488,1766652729085722,0,0,-0.0029,-0.0002,1.0,-0.0129,-0.0411,-0.0284,-33.9413,6.8328,39.1809,23.98,0.27,0.1,8.71,0.0,0.0,0.0,0.0,0,0.0,0.0,1,/data_0006-0.
627446488,1766652729089722,0,0,-0.0026,-0.0004,1.0,0.0024,-0.0487,-0.0284,-33.9413,6.8328,39.1809,23.98,0.28,0.1,8.73,0.0,0.0,0.0,0.0,0,0.0,0.0,1,/data_0006-0.
627450488,1766652729093722,0,0,-0.0027,-0.0004,1.0,-0.0053,-0.0564,-0.0284,-33.9413,6.8328,39.1809,23.98,0.29,0.1,8.74,0.0,0.0,0.0,0.0,0,0.0,0.0,1,/data_0006-0.
627454488,1766652729097722,0,0,-0.0023,-0.0004,0.9998,0.0024,-0.0564,-0.0284,-33.9413,6.8328,39.1809,23.98,0.3,0.1,8.76,0.0,0.0,0.0,0.0,0,0.0,0.0,1,/data_0006-0.
627494488,1766652729137722,0,0,-0.0026,-0.0008,1.0006,-0.0205,-0.0487,-0.0284,-34.1199,4.1356,37.9674,23.98,0.23,0.11,8.78,0.0,0.0,0.0,0.0,0,0.0,0.0,1,/data_0006-0.
627498488,1766652729141722,0,0,-0.0025,-0.0004,1.0008,-0.0129,-0.0487,-0.0436,-34.1199,4.1356,37.9674,23.99,0.21,0.11,8.76,0.0,0.0,0.0,0.0,0,0.0,0.0,1,/data_0006-0.
627502488,1766652729145722,0,0,-0.0024,-0.0005,1.0012,-0.0205,-0.0487,-0.0436,-34.1199,4.1356,37.9674,23.99,0.19,0.11,8.75,0.0,0.0,0.0,0.0,0,0.0,0.0,1,/data_0006-0.
627506488,1766652729149722,0,0,-0.0024,-0.0006,1.0015,-0.0282,-0.0487,-0.0436,-34.1199,4.1356,37.9674,23.99,0.17,0.12,8.74,0.0,0.0,0.0,0.0,0,0.0,0.0,1,/data_0006-0.
627562488,1766652729205722,0,0,-0.0026,-0.0,0.9998,-0.0205,-0.003,-0.0513,-34.1199,4.1356,37.9674,23.98,-0.04,0.14,8.58,0.0,0.0,0.0,0.0,0,0.0,0.0,1,/data_0006-0.
627566488,1766652729209722,0,0,-0.0027,0.0,0.9998,-0.0129,-0.0106,-0.036,-34.1199,4.1356,37.9674,23.97,-0.05,0.14,8.57,0.0,0.0,0.0,0.0,0,0.0,0.0,1,/data_0006-0.
627570488,1766652729213722,0,0,-0.0031,0.0002,1.0002,0.0024,-0.0106,-0.0284,-34.1199,4.1356,37.9674,23.97,-0.06,0.14,8.56,0.0,0.0,0.0,0.0,0,0.0,0.0,1,/data_0006-0.
627574488,1766652729217722,0,0,-0.0033,0.0003,1.0,0.0024,-0.003,-0.0284,-34.1199,4.1356,37.9674,23.97,-0.07,0.14,8.55,0.0,0.0,0.0,0.0,0,0.0,0.0,1,/data_0006-0.
627615488,1766652729258722,0,0,-0.0025,0.0003,0.9997,0.0024,-0.003,-0.0055,-34.4772,3.776,38.6608,23.98,-0.15,0.17,8.44,0.0,0.0,0.0,0.0,0,0.0,0.0,1,/data_0006-0.
627619488,1766652729262722,0,0,-0.0026,0.0002,1.0,-0.0053,-0.003,-0.0055,-34.4772,3.776,38.6608,23.98,-0.16,0.17,8.43,0.0,0.0,0.0,0.0,0,0.0,0.0,1,/data_0006-0.
627623488,1766652729266722,0,0,-0.0025,0.0001,1.0002,0.0024,-0.0106,0.0021,-34.4772,3.776,38.6608,23.98,-0.17,0.17,8.42,0.0,0.0,0.0,0.0,0,0.0,0.0,1,/data_0006-0.
627627488,1766652729270722,0,0,-0.0024,0.0002,1.0001,-0.0129,0.0123,0.0098,-34.4772,3.776,38.6608,23.98,-0.18,0.17,8.41,0.0,0.0,0.0,0.0,0,0.0,0.0,1,/data_0006-0.
627679488,1766652729322722,0,0,-0.0027,0.0003,0.9996,-0.0129,0.0123,0.0098,-34.4772,3.776,38.6608,23.98,-0.25,0.18,8.26,0.0,0.0,0.0,0.0,0,0.0,0.0,1,/data_0006-0.
627683488,1766652729326722,0,0,-0.0023,0.0,0.9999,-0.0129,-0.003,-0.0055,-34.4772,3.776,38.6608,23.98,-0.26,0.19,8.25,0.0,0.0,0.0,0.0,0,0.0,0.0,1,/data_0006-0.
627687488,1766652729330722,0,0,-0.0025,0.0003,0.9995,-0.0129,-0.0182,-0.0055,-34.4772,3.776,38.6608,23.98,-0.26,0.19,8.24,0.0,0.0,0.0,0.0,0,0.0,0.0,1,/data_0006-0.
627691488,1766652729334722,0,0,-0.0024,0.0004,0.9995,-0.0129,-0.0335,0.0021,-34.4772,3.776,38.6608,23.97,-0.26,0.19,8.23,0.0,0.0,0.0,0.0,0,0.0,0.0,1,/data_0006-0.
627735235,1766652729378469,0,0,-0.003,0.0002,0.9998,0.0024,-0.0487,-0.0208,-34.4772,3.776,38.6608,23.97,-0.3,0.19,8.12,0.0,0.0,0.0,0.0,0,0.0,0.0,1,/data_0006-0.
627739234,1766652729382468,0,0,-0.003,0.0003,0.9995,0.0024,-0.064,0.0098,-34.4772,3.776,38.6608,23.97,-0.3,0.19,8.11,0.0,0.0,0.0,0.0,0,0.0,0.0,1,/data_0006-0.
627743488,1766652729386722,0,0,-0.003,0.0,1.0,0.0176,-0.0564,0.0021,-34.4772,3.776,38.6608,23.97,-0.3,0.19,8.1,0.0,0.0,0.0,0.0,0,0.0,0.0,1,/data_0006-0.
627747487,1766652729390721,0,0,-0.0031,-0.0002,0.9998,0.0176,-0.0564,-0.0131,-34.4772,3.776,38.6608,23.97,-0.3,0.19,8.09,0.0,0.0,0.0,0.0,0,0.0,0.0,1,/data_0006-0.
627799488,1766652729442722,0,0,-0.0027,0.001,0.999,0.0176,-0.0411,-0.036,-34.4772,3.776,38.6608,23.97,-0.31,0.2,7.98,0.0,0.0,0.0,0.0,0,0.0,0.0,1,/data_0006-0.
627803488,1766652729446722,0,0,-0.0027,0.0008,0.9991,0.0176,-0.0258,-0.0131,-34.4772,3.776,38.6608,23.98,-0.31,0.2,7.97,0.0,0.0,0.0,0.0,0,0.0,0.0,1,/data_0006-0.
627807488,1766652729450722,0,0,-0.003,0.0006,0.9992,0.0253,-0.0335,-0.0284,-34.4772,3.776,38.6608,23.98,-0.31,0.2,7.96,0.0,0.0,0.0,0.0,0,0.0,0.0,1,/data_0006-0.
627811488,1766652729454722,0,0,-0.0032,0.0008,0.9995,0.0176,-0.0335,-0.036,-34.4772,3.776,38.6608,23.98,-0.31,0.2,7.95,0.0,0.0,0.0,0.0,0,0.0,0.0,1,/data_0006-0.
627855488,1766652729498722,0,0,-0.0031,0.0001,0.9998,0.0481,-0.0335,-0.0055,-34.4772,4.8549,38.6608,23.98,-0.29,0.2,7.87,0.0,0.0,0.0,0.0,0,0.0,0.0,1,/data_0006-0.
627859488,1766652729502722,0,0,-0.0032,0.0004,1.0,0.0329,-0.0411,0.0098,-34.4772,4.8549,38.6608,23.98,-0.28,0.2,7.87,0.0,0.0,0.0,0.0,0,0.0,0.0,1,/data_0006-0.
627863488,1766652729506722,0,0,-0.0033,0.0003,1.0001,0.0329,-0.0335,-0.0055,-34.4772,4.8549,38.6608,23.98,-0.27,0.2,7.88,0.0,0.0,0.0,0.0,0,0.0,0.0,1,/data_0006-0.
627867488,1766652729510722,0,0,-0.003,0.0003,1.0001,0.0405,-0.0258,0.0021,-34.4772,4.8549,38.6608,23.98,-0.26,0.2,7.88,0.0,0.0,0.0,0.0,0,0.0,0.0,1,/data_0006-0.
627919488,1766652729562722,0,0,-0.0024,-0.0001,0.9995,0.0253,-0.0411,0.0098,-34.4772,4.8549,38.6608,23.99,-0.15,0.18,7.91,0.0,0.0,0.0,0.0,0,0.0,0.0,1,/data_0006-0.
627923488,1766652729566722,0,0,-0.0024,-0.0,0.9992,0.0405,-0.0487,0.0174,-34.4772,4.8549,38.6608,23.99,-0.14,0.18,7.91,0.0,0.0,0.0,0.0,0,0.0,0.0,1,/data_0006-0.
627927488,1766652729570722,0,0,-0.0026,0.0,0.9992,0.0329,-0.0335,0.0098,-34.4772,4.8549,38.6608,23.99,-0.14,0.18,7.91,0.0,0.0,0.0,0.0,0,0.0,0.0,1,/data_0006-0.
627931488,1766652729574722,0,0,-0.0026,-0.0003,0.9992,0.0329,-0.0182,0.025,-34.4772,4.8549,38.6608,23.98,-0.13,0.17,7.91,0.0,0.0,0.0,0.0,0,0.0,0.0,1,/data_0006-0.
627983488,1766652729626722,0,0,-0.0028,-0.0001,0.9994,0.0176,-0.0258,0.0403,-34.8344,5.9337,38.3141,23.98,-0.06,0.16,7.94,0.0,0.0,0.0,0.0,0,0.0,0.0,1,/data_0006-0.
627987488,1766652729630722,0,0,-0.0026,-0.0003,0.9999,0.0176,-0.0335,0.0403,-34.8344,5.9337,38.3141,23.98,-0.05,0.16,7.96,0.0,0.0,0.0,0.0,0,0.0,0.0,1,/data_0006-0.
627991488,1766652729634722,0,0,-0.0027,-0.0,1.0002,0.0176,-0.0182,0.0403,-34.8344,5.9337,38.3141,23.98,-0.03,0.16,7.97,0.0,0.0,0.0,0.0,0,0.0,0.0,1,/data_0006-0.
627995235,1766652729638469,0,0,-0.0027,-0.0002,1.0001,0.01,-0.0182,0.0555,-34.8344,5.9337,38.3141,23.98,-0.02,0.16,7.98,0.0,0.0,0.0,0.0,0,0.0,0.0,1,/data_0006-0.
628039488,1766652729682722,0,0,-0.0035,0.0003,0.9995,0.01,-0.003,0.0021,-34.8344,5.9337,38.3141,23.98,0.09,0.14,8.09,0.0,0.0,0.0,0.0,0,0.0,0.0,1,/data_0006-0.
628043235,1766652729686469,0,0,-0.0033,0.0001,0.9996,0.0176,-0.0106,-0.0055,-34.8344,5.9337,38.3141,23.99,0.1,0.14,8.1,0.0,0.0,0.0,0.0,0,0.0,0.0,1,/data_0006-0.
628047488,1766652729690722,0,0,-0.0032,0.0,0.9997,0.0253,-0.0182,-0.0055,-34.8344,5.9337,38.3141,23.98,0.1,0.14,8.11,0.0,0.0,0.0,0.0,0,0.0,0.0,1,/data_0006-0.
628051488,1766652729694722,0,0,-0.0034,0.0001,0.9995,0.0176,-0.0106,-0.0131,-34.8344,5.9337,38.3141,23.99,0.11,0.14,8.12,0.0,0.0,0.0,0.0,0,0.0,0.0,1,/data_0006-0.
628103488,1766652729746722,0,0,-0.0025,0.0013,0.9996,-0.0053,-0.0182,0.0021,-34.8344,5.9337,38.3141,23.98,0.19,0.13,8.23,0.0,0.0,0.0,0.0,0,0.0,0.0,1,/data_0006-0.
628107488,1766652729750722,0,0,-0.0027,0.001,0.9997,0.0024,-0.0106,0.0174,-34.8344,5.9337,38.3141,23.97,0.2,0.13,8.24,0.0,0.0,0.0,0.0,0,0.0,0.0,1,/data_0006-0.
628111488,1766652729754722,0,0,-0.0026,0.0009,1.0002,0.01,0.0047,0.0174,-34.8344,5.9337,38.3141,23.97,0.2,0.13,8.24,0.0,0.0,0.0,0.0,0,0.0,0.0,1,/data_0006-0.
628115488,1766652729758722,0,0,-0.0027,0.001,1.0006,-0.0053,-0.003,0.025,-34.8344,5.9337,38.3141,23.97,0.21,0.13,8.25,0.0,0.0,0.0,0.0,0,0.0,0.0,1,/data_0006-0.
628159488,1766652729802722,0,0,-0.0024,0.0004,0.9989,-0.0053,-0.0487,-0.0208,-34.8344,5.9337,38.3141,23.98,0.24,0.12,8.33,0.0,0.0,0.0,0.0,0,0.0,0.0,1,/data_0006-0.
628163488,1766652729806722,0,0,-0.0026,0.0004,0.9989,-0.0129,-0.0564,-0.0208,-34.8344,5.9337,38.3141,23.98,0.24,0.12,8.34,0.0,0.0,0.0,0.0,0,0.0,0.0,1,/data_0006-0.
628167488,1766652729810722,0,0,-0.0029,0.0001,0.9992,-0.0053,-0.0564,-0.0131,-34.8344,5.9337,38.3141,23.98,0.24,0.12,8.35,0.0,0.0,0.0,0.0,0,0.0,0.0,1,/data_0006-0.
628171488,1766652729814722,0,0,-0.0028,0.0001,0.9993,-0.0053,-0.0258,0.025,-34.8344,5.9337,38.3141,23.98,0.24,0.12,8.35,0.0,0.0,0.0,0.0,0,0.0,0.0,1,/data_0006-0.
628223488,1766652729866722,0,0,-0.0026,0.0001,0.9996,-0.0282,0.0123,0.0021,-34.8344,5.9337,38.3141,23.97,0.24,0.12,8.44,0.0,0.0,0.0,0.0,0,0.0,0.0,1,/data_0006-0.
628227488,1766652729870722,0,0,-0.0025,-0.0001,1.0,-0.0129,-0.003,0.0021,-34.8344,5.9337,38.3141,23.97,0.24,0.12,8.44,0.0,0.0,0.0,0.0,0,0.0,0.0,1,/data_0006-0.
628231488,1766652729874722,0,0,-0.0029,0.0001,0.9998,-0.0053,-0.0106,0.0098,-35.0131,4.675,39.5277,23.97,0.24,0.12,8.44,0.0,0.0,0.0,0.0,0,0.0,0.0,1,/data_0006-0.
628235488,1766652729878722,0,0,-0.0029,0.0004,1.0,-0.0053,-0.0106,0.0098,-35.0131,4.675,39.5277,23.97,0.22,0.12,8.44,0.0,0.0,0.0,0.0,0,0.0,0.0,1,/data_0006-0.
628279488,1766652729922722,0,0,-0.0032,0.0003,0.9997,0.0024,0.0047,0.0098,-35.0131,4.675,39.5277,23.98,0.11,0.15,8.37,0.0,0.0,0.0,0.0,0,0.0,0.0,1,/data_0006-0.
628283488,1766652729926722,0,0,-0.0032,0.0005,0.9996,-0.0053,-0.003,0.0174,-35.0131,4.675,39.5277,23.98,0.1,0.15,8.37,0.0,0.0,0.0,0.0,0,0.0,0.0,1,/data_0006-0.
628287734,1766652729930968,0,0,-0.0029,0.0005,0.9998,0.01,-0.0258,0.0174,-35.0131,4.675,39.5277,23.98,0.09,0.15,8.36,0.0,0.0,0.0,0.0,0,0.0,0.0,1,/data_0006-0.
628291492,1766652729934726,0,0,-0.0027,0.0005,0.9997,0.01,-0.0487,0.0021,-35.0131,4.675,39.5277,23.98,0.09,0.15,8.35,0.0,0.0,0.0,0.0,0,0.0,0.0,1,/data_0006-0.
628343234,1766652729986468,0,0,-0.0021,-0.0002,0.9997,0.0329,-0.0487,0.0327,-35.0131,4.675,39.5277,23.98,-0.0,0.16,8.29,0.0,0.0,0.0,0.0,0,0.0,0.0,1,/data_0006-0.
628347235,1766652729990469,0,0,-0.0024,-0.0,0.9992,0.0329,-0.0411,0.0327,-35.0131,4.675,39.5277,23.98,-0.01,0.16,8.29,0.0,0.0,0.0,0.0,0,0.0,0.0,1,/data_0006-0.
628351234,1766652729994468,0,0,-0.0024,0.0,0.9991,0.0253,-0.0564,0.0479,-35.0131,4.675,39.5277,23.98,-0.01,0.16,8.29,0.0,0.0,0.0,0.0,0,0.0,0.0,1,/data_0006-0.
628355234,1766652729998468,0,0,-0.0023,0.0001,0.9996,0.0329,-0.0564,0.0479,-35.0131,4.675,39.5277,23.98,-0.01,0.16,8.28,0.0,0.0,0.0,0.0,0,0.0,0.0,1,/data_0006-0.
628399488,1766652730042722,0,0,-0.0018,0.0002,0.9997,-0.0129,-0.0182,0.0098,-33.9413,4.675,38.4875,23.98,-0.03,0.14,8.26,0.0,0.0,0.0,0.0,0,0.0,0.0,1,/data_0006-0.
628403488,1766652730046722,0,0,-0.0018,0.0002,1.0,-0.0205,-0.0258,0.0098,-33.9413,4.675,38.4875,23.98,-0.03,0.14,8.25,0.0,0.0,0.0,0.0,0,0.0,0.0,1,/data_0006-0.
628407234,1766652730050468,0,0,-0.0016,0.0003,1.0005,-0.0129,-0.0258,0.0021,-33.9413,4.675,38.4875,23.98,-0.04,0.14,8.25,0.0,0.0,0.0,0.0,0,0.0,0.0,1,/data_0006-0.
628411235,1766652730054469,0,0,-0.0019,0.0003,1.0004,-0.0053,-0.0258,0.0021,-33.9413,4.675,38.4875,23.98,-0.04,0.14,8.25,0.0,0.0,0.0,0.0,0,0.0,0.0,1,/data_0006-0.
628463488,1766652730106722,0,0,-0.0024,0.0001,0.9996,0.0024,-0.003,0.0174,-33.9413,4.675,38.4875,23.98,-0.05,0.14,8.22,0.0,0.0,0.0,0.0,0,0.0,0.0,1,/data_0006-0.
628467488,1766652730110722,0,0,-0.0023,0.0001,0.9993,-0.0129,0.0047,0.0098,-33.9413,4.675,38.4875,23.98,-0.05,0.14,8.22,0.0,0.0,0.0,0.0,0,0.0,0.0,1,/data_0006-0.
628471491,1766652730114725,0,0,-0.0024,0.0003,0.9993,-0.0053,-0.003,0.0098,-33.9413,4.675,38.4875,23.98,-0.05,0.14,8.22,0.0,0.0,0.0,0.0,0,0.0,0.0,1,/data_0006-0.
628475488,1766652730118722,0,0,-0.0027,0.0003,0.9998,0.01,-0.0106,0.025,-33.9413,4.675,38.4875,23.98,-0.05,0.14,8.22,0.0,0.0,0.0,0.0,0,0.0,0.0,1,/data_0006-0.
628519488,1766652730162722,0,0,-0.0033,0.0002,1.0002,0.0253,-0.0258,0.0021,-33.7626,5.2145,37.6206,23.97,0.0,0.14,8.25,0.0,0.0,0.0,0.0,0,0.0,0.0,1,/data_0006-0.
628523488,1766652730166722,0,0,-0.0026,0.0,1.0005,0.0176,-0.0411,0.0021,-33.7626,5.2145,37.6206,23.97,0.0,0.14,8.26,0.0,0.0,0.0,0.0,0,0.0,0.0,1,/data_0006-0.
628527488,1766652730170722,0,0,-0.0023,0.0,1.0009,0.0176,-0.0182,0.0098,-33.7626,5.2145,37.6206,23.97,0.01,0.14,8.26,0.0,0.0,0.0,0.0,0,0.0,0.0,1,/data_0006-0.
628531488,1766652730174722,0,0,-0.0021,0.0002,1.0009,-0.0053,-0.0182,0.0098,-33.7626,5.2145,37.6206,23.97,0.01,0.14,8.26,0.0,0.0,0.0,0.0,0,0.0,0.0,1,/data_0006-0.
628583488,1766652730226722,0,0,-0.0018,-0.0002,1.0003,-0.0053,-0.0564,0.0174,-33.7626,5.2145,37.6206,23.98,0.04,0.13,8.3,0.0,0.0,0.0,0.0,0,0.0,0.0,1,/data_0006-0.
628587488,1766652730230722,0,0,-0.0017,-0.0001,1.0002,-0.0129,-0.064,0.0098,-33.7626,5.2145,37.6206,23.98,0.04,0.13,8.31,0.0,0.0,0.0,0.0,0,0.0,0.0,1,/data_0006-0.
628591488,1766652730234722,0,0,-0.0021,-0.0003,0.9998,-0.0129,-0.0487,0.025,-33.7626,5.2145,37.6206,23.98,0.05,0.13,8.31,0.0,0.0,0.0,0.0,0,0.0,0.0,1,/data_0006-0.
628595488,1766652730238722,0,0,-0.0025,-0.0001,0.9996,-0.0129,-0.0487,0.0098,-33.7626,5.2145,37.6206,23.97,0.05,0.13,8.31,0.0,0.0,0.0,0.0,0,0.0,0.0,1,/data_0006-0.
628639234,1766652730282468,0,0,-0.0023,0.0003,1.0007,0.01,-0.0182,0.025,-33.7626,5.9337,39.3543,23.97,0.13,0.12,8.4,0.0,0.0,0.0,0.0,0,0.0,0.0,1,/data_0006-0.
628643234,1766652730286468,0,0,-0.0023,0.0003,1.0008,0.0176,-0.0182,0.0098,-33.7626,5.9337,39.3543,23.97,0.13,0.12,8.41,0.0,0.0,0.0,0.0,0,0.0,0.0,1,/data_0006-0.
628647234,1766652730290468,0,0,-0.0021,0.0002,1.0006,0.0253,-0.0106,-0.0055,-33.7626,5.9337,39.3543,23.98,0.14,0.11,8.42,0.0,0.0,0.0,0.0,0,0.0,0.0,1,/data_0006-0.
628651488,1766652730294722,0,0,-0.0018,0.0003,1.0006,0.0176,-0.003,-0.0055,-33.7626,5.9337,39.3543,23.98,0.15,0.11,8.43,0.0,0.0,0.0,0.0,0,0.0,0.0,1,/data_0006-0.
628703488,1766652730346722,0,0,-0.0023,-0.0004,0.9996,0.0481,-0.0258,0.0174,-33.7626,5.9337,39.3543,23.97,0.2,0.1,8.53,0.0,0.0,0.0,0.0,0,0.0,0.0,1,/data_0006-0.
628707236,1766652730350470,0,0,-0.0024,-0.0005,1.0001,0.0481,-0.0182,0.025,-33.7626,5.9337,39.3543,23.98,0.2,0.1,8.54,0.0,0.0,0.0,0.0,0,0.0,0.0,1,/data_0006-0.
628711241,1766652730354475,0,0,-0.0023,-0.0005,1.0,0.0481,-0.0106,0.0327,-33.7626,5.9337,39.3543,23.98,0.2,0.1,8.55,0.0,0.0,0.0,0.0,0,0.0,0.0,1,/data_0006-0.
628715488,1766652730358722,0,0,-0.0022,-0.0004,1.0,0.0481,-0.0106,0.0098,-33.7626,5.9337,39.3543,23.98,0.21,0.1,8.56,0.0,0.0,0.0,0.0,0,0.0,0.0,1,/data_0006-0.
628759488,1766652730402722,0,0,-0.0028,-0.0004,0.9998,0.01,-0.003,0.0632,-35.0131,5.0347,38.1407,23.98,0.15,0.11,8.56,0.0,0.0,0.0,0.0,0,0.0,0.0,1,/data_0006-0.
628763488,1766652730406722,0,0,-0.0031,-0.0003,0.9993,0.0024,-0.0106,0.0479,-35.0131,5.0347,38.1407,23.98,0.14,0.11,8.56,0.0,0.0,0.0,0.0,0,0.0,0.0,1,/data_0006-0.
628767488,1766652730410722,0,0,-0.0034,-0.0,1.0,0.0024,0.0047,0.0555,-35.0131,5.0347,38.1407,23.98,0.13,0.11,8.56,0.0,0.0,0.0,0.0,0,0.0,0.0,1,/data_0006-0.
628771488,1766652730414722,0,0,-0.0032,0.0001,1.0002,0.01,0.0047,0.0479,-35.0131,5.0347,38.1407,23.98,0.12,0.11,8.55,0.0,0.0,0.0,0.0,0,0.0,0.0,1,/data_0006-0.
628823488,1766652730466722,0,0,-0.0021,-0.0003,0.9993,0.0176,0.0047,0.0403,-35.0131,5.0347,38.1407,23.98,0.06,0.13,8.52,0.0,0.0,0.0,0.0,0,0.0,0.0,1,/data_0006-0.
628827488,1766652730470722,0,0,-0.0022,-0.0004,0.9995,0.0176,-0.0106,0.0174,-35.0131,5.0347,38.1407,23.98,0.05,0.13,8.52,0.0,0.0,0.0,0.0,0,0.0,0.0,1,/data_0006-0.
628831488,1766652730474722,0,0,-0.0023,-0.0006,0.9999,0.01,-0.0106,0.0098,-35.0131,5.0347,38.1407,23.98,0.05,0.13,8.51,0.0,0.0,0.0,0.0,0,0.0,0.0,1,/data_0006-0.
628835488,1766652730478722,0,0,-0.0026,-0.0007,1.0,0.01,-0.0106,0.0174,-35.0131,5.0347,38.1407,23.98,0.04,0.13,8.51,0.0,0.0,0.0,0.0,0,0.0,0.0,1,/data_0006-0.
628879488,1766652730522722,0,0,-0.0028,0.0002,0.9995,0.0024,-0.0258,0.0098,-34.2985,4.3154,38.4875,23.99,-0.03,0.14,8.45,0.0,0.0,0.0,0.0,0,0.0,0.0,1,/data_0006-0.
628883488,1766652730526722,0,0,-0.0026,0.0005,0.9996,0.01,-0.0258,-0.0208,-34.2985,4.3154,38.4875,23.99,-0.03,0.14,8.45,0.0,0.0,0.0,0.0,0,0.0,0.0,1,/data_0006-0.
628887488,1766652730530722,0,0,-0.0026,0.0005,0.9999,-0.0053,-0.0182,-0.0208,-34.2985,4.3154,38.4875,23.99,-0.04,0.14,8.44,0.0,0.0,0.0,0.0,0,0.0,0.0,1,/data_0006-0.
628891488,1766652730534722,0,0,-0.0024,0.0005,1.0005,-0.0129,-0.0258,-0.0284,-34.2985,4.3154,38.4875,23.99,-0.05,0.15,8.43,0.0,0.0,0.0,0.0,0,0.0,0.0,1,/data_0006-0.
628943488,1766652730586722,0,0,-0.0023,0.0001,0.9997,0.0024,-0.0182,-0.0131,-34.2985,4.3154,38.4875,23.99,-0.11,0.16,8.34,0.0,0.0,0.0,0.0,0,0.0,0.0,1,/data_0006-0.
628947235,1766652730590469,0,0,-0.0021,-0.0003,1.0,0.01,-0.0258,-0.0055,-34.2985,4.3154,38.4875,23.99,-0.11,0.16,8.34,0.0,0.0,0.0,0.0,0,0.0,0.0,1,/data_0006-0.
628951235,1766652730594469,0,0,-0.0019,-0.0001,1.0001,0.0176,-0.0411,-0.0055,-34.2985,4.3154,38.4875,23.99,-0.12,0.16,8.33,0.0,0.0,0.0,0.0,0,0.0,0.0,1,/data_0006-0.
628955491,1766652730598725,0,0,-0.002,0.0001,0.9998,0.0024,-0.0411,-0.0208,-34.2985,4.3154,38.4875,23.99,-0.12,0.16,8.32,0.0,0.0,0.0,0.0,0,0.0,0.0,1,/data_0006-0.
628995235,1766652730638469,0,0,-0.0018,0.0005,0.9996,0.0024,-0.0335,-0.0436,-34.1199,4.4952,39.3543,23.99,-0.14,0.15,8.27,0.0,0.0,0.0,0.0,0,0.0,0.0,1,/data_0006-0.
628999234,1766652730642468,0,0,-0.0022,0.0005,0.9993,-0.0053,-0.0335,-0.0436,-34.1199,4.4952,39.3543,23.99,-0.14,0.15,8.27,0.0,0.0,0.0,0.0,0,0.0,0.0,1,/data_0006-0.
629003235,1766652730646469,0,0,-0.0023,0.0007,0.9996,-0.0205,-0.0182,-0.0513,-34.1199,4.4952,39.3543,23.99,-0.14,0.15,8.26,0.0,0.0,0.0,0.0,0,0.0,0.0,1,/data_0006-0.
629007234,1766652730650468,0,0,-0.0022,0.0005,0.9993,-0.0129,-0.0182,-0.036,-34.1199,4.4952,39.3543,23.98,-0.13,0.15,8.26,0.0,0.0,0.0,0.0,0,0.0,0.0,1,/data_0006-0.
629063234,1766652730706468,0,0,-0.0023,0.0004,0.9986,0.01,-0.0335,0.0174,-34.1199,4.4952,39.3543,23.98,-0.13,0.15,8.21,0.0,0.0,0.0,0.0,0,0.0,0.0,1,/data_0006-0.
629067488,1766652730710722,0,0,-0.0023,0.0004,0.9981,0.0329,-0.0258,0.0098,-34.1199,4.4952,39.3543,23.98,-0.13,0.15,8.21,0.0,0.0,0.0,0.0,0,0.0,0.0,1,/data_0006-0.
629071488,1766652730714722,0,0,-0.0024,0.0006,0.9982,0.01,-0.0335,-0.0055,-34.1199,4.4952,39.3543,23.98,-0.13,0.15,8.2,0.0,0.0,0.0,0.0,0,0.0,0.0,1,/data_0006-0.
629075488,1766652730718722,0,0,-0.0026,0.0004,0.998,0.01,-0.0411,0.0021,-34.1199,4.4952,39.3543,23.98,-0.13,0.15,8.2,0.0,0.0,0.0,0.0,0,0.0,0.0,1,/data_0006-0.
629128488,1766652730771722,0,0,-0.0026,-0.0003,0.9997,0.0024,-0.0335,-0.0284,-34.1199,4.4952,39.3543,23.98,-0.12,0.16,8.16,0.0,0.0,0.0,0.0,0,0.0,0.0,1,/data_0006-0.
629132488,1766652730775722,0,0,-0.0028,-0.0001,0.9996,0.0024,-0.0411,-0.0131,-34.1199,4.4952,39.3543,23.98,-0.12,0.16,8.15,0.0,0.0,0.0,0.0,0,0.0,0.0,1,/data_0006-0.
629136488,1766652730779722,0,0,-0.0027,-0.0001,0.9998,0.0024,-0.0335,-0.0055,-34.1199,4.4952,39.3543,23.98,-0.12,0.16,8.15,0.0,0.0,0.0,0.0,0,0.0,0.0,1,/data_0006-0.
629140488,1766652730783722,0,0,-0.0029,0.0001,1.0001,0.0024,-0.0411,0.0021,-34.1199,4.4952,39.3543,23.98,-0.12,0.16,8.15,0.0,0.0,0.0,0.0,0,0.0,0.0,1,/data_0006-0.
629180488,1766652730823722,0,0,-0.0026,0.0004,0.9989,0.01,-0.0411,-0.0055,-34.1199,4.4952,39.3543,23.98,-0.12,0.16,8.12,0.0,0.0,0.0,0.0,0,0.0,0.0,1,/data_0006-0.
629184488,1766652730827722,0,0,-0.0025,0.0007,0.9992,0.0176,-0.0411,0.0021,-34.1199,4.4952,39.3543,23.98,-0.12,0.16,8.12,0.0,0.0,0.0,0.0,0,0.0,0.0,1,/data_0006-0.
629188488,1766652730831722,0,0,-0.0023,0.001,0.9992,0.0176,-0.0335,0.0174,-34.1199,4.4952,39.3543,23.98,-0.11,0.16,8.11,0.0,0.0,0.0,0.0,0,0.0,0.0,1,/data_0006-0.
629192488,1766652730835722,0,0,-0.0022,0.0006,0.9993,0.0253,-0.0258,0.0327,-34.1199,4.4952,39.3543,23.98,-0.11,0.16,8.11,0.0,0.0,0.0,0.0,0,0.0,0.0,1,/data_0006-0.
629248488,1766652730891722,0,0,-0.0021,-0.0003,0.9991,0.0176,-0.064,-0.0055,-34.8344,5.9337,38.6608,23.99,-0.07,0.14,8.12,0.0,0.0,0.0,0.0,0,0.0,0.0,1,/data_0006-0.
629252488,1766652730895722,0,0,-0.0022,-0.0003,0.9992,0.0253,-0.064,-0.0208,-34.8344,5.9337,38.6608,23.99,-0.05,0.14,8.13,0.0,0.0,0.0,0.0,0,0.0,0.0,1,/data_0006-0.
629256488,1766652730899722,0,0,-0.002,-0.0002,0.999,0.0176,-0.0564,-0.0131,-34.8344,5.9337,38.6608,23.99,-0.04,0.14,8.14,0.0,0.0,0.0,0.0,0,0.0,0.0,1,/data_0006-0.
629260488,1766652730903722,0,0,-0.002,-0.0001,0.9992,0.0176,-0.0564,0.0021,-34.8344,5.9337,38.6608,23.99,-0.03,0.14,8.15,0.0,0.0,0.0,0.0,0,0.0,0.0,1,/data_0006-0.
629300234,1766652730943468,0,0,-0.0025,0.0002,0.9992,0.0405,-0.0182,-0.0131,-34.8344,5.9337,38.6608,23.98,0.06,0.12,8.25,0.0,0.0,0.0,0.0,0,0.0,0.0,1,/data_0006-0.
629304234,1766652730947468,0,0,-0.002,0.0,0.9991,0.0176,-0.0106,-0.0131,-34.8344,5.9337,38.6608,23.98,0.07,0.12,8.26,0.0,0.0,0.0,0.0,0,0.0,0.0,1,/data_0006-0.
629308488,1766652730951722,0,0,-0.0024,0.0001,0.9995,0.0176,-0.0106,-0.0131,-34.8344,5.9337,38.6608,23.98,0.08,0.12,8.26,0.0,0.0,0.0,0.0,0,0.0,0.0,1,/data_0006-0.
629312488,1766652730955722,0,0,-0.0023,0.0002,1.0,0.0329,-0.0182,0.0098,-34.8344,5.9337,38.6608,23.98,0.09,0.12,8.27,0.0,0.0,0.0,0.0,0,0.0,0.0,1,/data_0006-0.
629368234,1766652731011468,0,0,-0.002,0.0003,0.9996,0.0253,-0.003,-0.0208,-33.0481,6.2933,39.0076,23.97,0.18,0.1,8.4,0.0,0.0,0.0,0.0,0,0.0,0.0,1,/data_0006-0.
629372488,1766652731015722,0,0,-0.002,0.0007,0.9996,0.0176,-0.0182,-0.0131,-33.0481,6.2933,39.0076,23.97,0.2,0.1,8.41,0.0,0.0,0.0,0.0,0,0.0,0.0,1,/data_0006-0.
629376488,1766652731019722,0,0,-0.0022,0.0006,0.9993,0.0176,-0.0258,-0.0208,-33.0481,6.2933,39.0076,23.97,0.21,0.1,8.42,0.0,0.0,0.0,0.0,0,0.0,0.0,1,/data_0006-0.
629380488,1766652731023722,0,0,-0.0021,0.0005,0.9998,0.0329,-0.0258,-0.0055,-33.0481,6.2933,39.0076,23.97,0.22,0.1,8.44,0.0,0.0,0.0,0.0,0,0.0,0.0,1,/data_0006-0.
629420488,1766652731063722,0,0,-0.0026,0.0002,1.0002,0.0176,0.0199,-0.0208,-33.0481,6.2933,39.0076,23.98,0.29,0.09,8.56,0.0,0.0,0.0,0.0,0,0.0,0.0,1,/data_0006-0.
629424488,1766652731067722,0,0,-0.0024,0.0004,1.0003,-0.0053,0.0047,-0.0131,-33.0481,6.2933,39.0076,23.98,0.3,0.09,8.58,0.0,0.0,0.0,0.0,0,0.0,0.0,1,/data_0006-0.
629428488,1766652731071722,0,0,-0.0029,0.0005,1.0001,0.0024,0.0047,0.0098,-33.0481,6.2933,39.0076,23.98,0.31,0.09,8.59,0.0,0.0,0.0,0.0,0,0.0,0.0,1,/data_0006-0.
629432488,1766652731075722,0,0,-0.0031,0.0005,1.0003,0.0176,0.0047,0.025,-33.0481,6.2933,39.0076,23.98,0.31,0.09,8.6,0.0,0.0,0.0,0.0,0,0.0,0.0,1,/data_0006-0.
629484488,1766652731127722,0,0,-0.0031,0.0005,1.0,-0.0053,-0.0335,-0.0208,-34.2985,5.7539,38.1407,23.99,0.35,0.09,8.74,0.0,0.0,0.0,0.0,0,0.0,0.0,1,/data_0006-0.
629488488,1766652731131722,0,0,-0.0031,0.0004,1.0003,-0.0358,-0.0182,-0.0131,-34.2985,5.7539,38.1407,23.99,0.35,0.09,8.74,0.0,0.0,0.0,0.0,0,0.0,0.0,1,/data_0006-0.
629492488,1766652731135722,0,0,-0.0031,-0.0,1.0003,-0.0282,-0.0106,-0.0131,-34.2985,5.7539,38.1407,23.99,0.34,0.1,8.75,0.0,0.0,0.0,0.0,0,0.0,0.0,1,/data_0006-0.
629496488,1766652731139722,0,0,-0.0028,0.0,0.9996,-0.0282,-0.0182,0.0021,-34.2985,5.7539,38.1407,23.98,0.33,0.1,8.75,0.0,0.0,0.0,0.0,0,0.0,0.0,1,/data_0006-0.
629540488,1766652731183722,0,0,-0.0031,-0.0,0.9995,-0.0282,0.0047,-0.0436,-34.2985,5.7539,38.1407,23.98,0.28,0.11,8.78,0.0,0.0,0.0,0.0,0,0.0,0.0,1,/data_0006-0.
629544488,1766652731187722,0,0,-0.0029,-0.0003,0.9991,-0.0129,0.0047,-0.036,-34.2985,5.7539,38.1407,23.98,0.27,0.11,8.78,0.0,0.0,0.0,0.0,0,0.0,0.0,1,/data_0006-0.
629548488,1766652731191722,0,0,-0.0028,-0.0003,0.9995,-0.0129,0.0123,-0.0284,-34.2985,5.7539,38.1407,23.98,0.27,0.11,8.79,0.0,0.0,0.0,0.0,0,0.0,0.0,1,/data_0006-0.
629552488,1766652731195722,0,0,-0.003,-0.0003,0.9997,-0.0129,0.0199,-0.0131,-34.2985,5.7539,38.1407,23.98,0.26,0.11,8.79,0.0,0.0,0.0,0.0,0,0.0,0.0,1,/data_0006-0.
629605488,1766652731248722,0,0,-0.0031,-0.0001,0.9991,0.0405,-0.003,0.0327,-34.2985,5.7539,38.1407,23.98,0.22,0.13,8.83,0.0,0.0,0.0,0.0,0,0.0,0.0,1,/data_0006-0.
629609488,1766652731252722,0,0,-0.0027,-0.0003,0.9985,0.0253,0.0047,0.0174,-34.6558,5.7539,38.1407,23.98,0.21,0.13,8.83,0.0,0.0,0.0,0.0,0,0.0,0.0,1,/data_0006-0.
629613488,1766652731256722,0,0,-0.0025,-0.0001,0.9988,0.0329,0.0199,0.025,-34.6558,4.3154,39.8744,23.99,0.19,0.13,8.82,0.0,0.0,0.0,0.0,0,0.0,0.0,1,/data_0006-0.
629617488,1766652731260722,0,0,-0.0025,-0.0001,0.9997,0.0405,0.0276,0.025,-34.6558,4.3154,39.8744,23.99,0.17,0.13,8.81,0.0,0.0,0.0,0.0,0,0.0,0.0,1,/data_0006-0.
629661488,1766652731304722,0,0,-0.0025,-0.0003,1.0,0.0024,0.0047,-0.0055,-34.6558,4.3154,39.8744,23.99,0.01,0.15,8.69,0.0,0.0,0.0,0.0,0,0.0,0.0,1,/data_0006-0.
629665243,1766652731308477,0,0,-0.0024,-0.0001,0.9995,0.01,0.0123,-0.0208,-34.6558,4.3154,39.8744,23.99,0.0,0.16,8.68,0.0,0.0,0.0,0.0,0,0.0,0.0,1,/data_0006-0.
629669234,1766652731312468,0,0,-0.0026,-0.0002,0.9995,0.0024,0.0123,-0.0436,-34.6558,4.3154,39.8744,23.99,-0.01,0.16,8.67,0.0,0.0,0.0,0.0,0,0.0,0.0,1,/data_0006-0.
629673488,1766652731316722,0,0,-0.0025,0.0001,0.9993,0.0253,0.0047,-0.0208,-34.6558,4.3154,39.8744,23.99,-0.02,0.16,8.66,0.0,0.0,0.0,0.0,0,0.0,0.0,1,/data_0006-0.
629725488,1766652731368722,0,0,-0.0027,0.0,0.999,0.0176,-0.0335,-0.0284,-34.6558,4.3154,39.8744,23.98,-0.12,0.17,8.55,0.0,0.0,0.0,0.0,0,0.0,0.0,1,/data_0006-0.
629729488,1766652731372722,0,0,-0.0025,0.0,0.9986,0.0176,-0.0258,0.0021,-34.6558,4.3154,39.8744,23.98,-0.12,0.17,8.54,0.0,0.0,0.0,0.0,0,0.0,0.0,1,/data_0006-0.
629733488,1766652731376722,0,0,-0.0024,0.0004,0.9985,0.0253,-0.0182,-0.0055,-34.6558,4.3154,39.8744,23.98,-0.13,0.17,8.53,0.0,0.0,0.0,0.0,0,0.0,0.0,1,/data_0006-0.
629737488,1766652731380722,0,0,-0.0024,0.0004,0.9984,0.01,-0.0258,0.0174,-33.584,5.0347,39.1809,23.98,-0.13,0.17,8.53,0.0,0.0,0.0,0.0,0,0.0,0.0,1,/data_0006-0.
629781488,1766652731424722,0,0,-0.002,0.0013,0.9995,0.0329,0.0047,0.0021,-33.584,5.0347,39.1809,23.98,-0.07,0.16,8.54,0.0,0.0,0.0,0.0,0,0.0,0.0,1,/data_0006-0.
629785488,1766652731428722,0,0,-0.002,0.001,0.9997,0.0405,-0.003,-0.0055,-33.584,5.0347,39.1809,23.98,-0.06,0.16,8.54,0.0,0.0,0.0,0.0,0,0.0,0.0,1,/data_0006-0.
629789488,1766652731432722,0,0,-0.0021,0.0007,0.9996,0.0253,0.0047,-0.0055,-33.584,5.0347,39.1809,23.98,-0.06,0.16,8.54,0.0,0.0,0.0,0.0,0,0.0,0.0,1,/data_0006-0.
629793488,1766652731436722,0,0,-0.0021,0.0003,0.999,0.0405,0.0047,-0.0131,-33.584,5.0347,39.1809,23.99,-0.06,0.15,8.54,0.0,0.0,0.0,0.0,0,0.0,0.0,1,/data_0006-0.
629845488,1766652731488722,0,0,-0.0021,0.0002,0.999,0.01,0.0047,-0.0055,-33.584,5.0347,39.1809,23.98,-0.03,0.15,8.54,0.0,0.0,0.0,0.0,0,0.0,0.0,1,/data_0006-0.
629849488,1766652731492722,0,0,-0.0018,0.0001,0.9991,0.0176,0.0047,-0.0055,-33.584,5.0347,39.1809,23.98,-0.03,0.15,8.54,0.0,0.0,0.0,0.0,0,0.0,0.0,1,/data_0006-0.
629853488,1766652731496722,0,0,-0.0022,0.0,0.999,0.0024,0.0047,-0.0131,-33.584,5.0347,39.1809,23.98,-0.03,0.15,8.54,0.0,0.0,0.0,0.0,0,0.0,0.0,1,/data_0006-0.
629857488,1766652731500722,0,0,-0.0021,-0.0001,0.9994,0.0024,0.0047,0.0021,-33.584,5.0347,39.1809,23.98,-0.03,0.15,8.54,0.0,0.0,0.0,0.0,0,0.0,0.0,1,/data_0006-0.
629901488,1766652731544722,0,0,-0.0026,0.0007,1.0003,0.0253,-0.0258,0.0098,-33.7626,5.5741,37.6206,23.99,0.04,0.13,8.6,0.0,0.0,0.0,0.0,0,0.0,0.0,1,/data_0006-0.
629905488,1766652731548722,0,0,-0.0028,0.0007,1.0006,0.0253,-0.0258,0.0098,-33.7626,5.5741,37.6206,23.99,0.04,0.13,8.6,0.0,0.0,0.0,0.0,0,0.0,0.0,1,/data_0006-0.
629909238,1766652731552472,0,0,-0.0029,0.0005,1.0001,0.0329,-0.0182,0.0021,-33.7626,5.5741,37.6206,24.0,0.05,0.13,8.61,0.0,0.0,0.0,0.0,0,0.0,0.0,1,/data_0006-0.
629913488,1766652731556722,0,0,-0.0029,0.0002,1.0004,0.0176,-0.0258,0.025,-33.7626,5.5741,37.6206,23.99,0.05,0.13,8.61,0.0,0.0,0.0,0.0,0,0.0,0.0,1,/data_0006-0.
629965488,1766652731608722,0,0,-0.0025,-0.0004,0.9995,-0.0053,-0.0487,0.0021,-33.7626,5.5741,37.6206,23.99,0.09,0.13,8.67,0.0,0.0,0.0,0.0,0,0.0,0.0,1,/data_0006-0.
629969488,1766652731612722,0,0,-0.0026,-0.0,0.9992,0.0024,-0.064,0.0174,-33.7626,5.5741,37.6206,23.99,0.09,0.13,8.67,0.0,0.0,0.0,0.0,0,0.0,0.0,1,/data_0006-0.
629973243,1766652731616477,0,0,-0.0025,-0.0001,0.9989,0.01,-0.0869,0.0021,-33.7626,5.5741,37.6206,23.98,0.09,0.13,8.67,0.0,0.0,0.0,0.0,0,0.0,0.0,1,/data_0006-0.
629977234,1766652731620468,0,0,-0.0029,-0.0002,0.999,-0.0053,-0.0945,0.0021,-33.7626,5.5741,37.6206,23.98,0.09,0.13,8.68,0.0,0.0,0.0,0.0,0,0.0,0.0,1,/data_0006-0.
630021487,1766652731664721,0,0,-0.0026,0.0003,0.9999,0.0329,-0.0487,0.025,-34.1199,4.8549,39.0076,23.99,0.04,0.14,8.65,0.0,0.0,0.0,0.0,0,0.0,0.0,1,/data_0006-0.
630025488,1766652731668722,0,0,-0.0024,-0.0,0.9998,0.0481,-0.0564,0.0098,-34.1199,4.8549,39.0076,24.0,0.03,0.14,8.65,0.0,0.0,0.0,0.0,0,0.0,0.0,1,/data_0006-0.
630029488,1766652731672722,0,0,-0.0024,-0.0001,1.0,0.0405,-0.0335,0.0021,-34.1199,4.8549,39.0076,23.99,0.03,0.14,8.64,0.0,0.0,0.0,0.0,0,0.0,0.0,1,/data_0006-0.
630033488,1766652731676722,0,0,-0.0025,0.0001,0.9998,0.0253,-0.0411,-0.0131,-34.1199,4.8549,39.0076,23.99,0.02,0.14,8.64,0.0,0.0,0.0,0.0,0,0.0,0.0,1,/data_0006-0.
630085487,1766652731728721,0,0,-0.0021,0.0,0.9995,0.0024,-0.0182,-0.0055,-34.1199,4.8549,39.0076,23.99,-0.02,0.14,8.6,0.0,0.0,0.0,0.0,0,0.0,0.0,1,/data_0006-0.
630089488,1766652731732722,0,0,-0.002,0.0002,0.9995,0.01,-0.0106,0.0021,-34.1199,4.8549,39.0076,24.0,-0.02,0.14,8.6,0.0,0.0,0.0,0.0,0,0.0,0.0,1,/data_0006-0.
630093488,1766652731736722,0,0,-0.0019,0.0002,0.9997,0.01,-0.003,0.0174,-34.1199,4.8549,39.0076,23.99,-0.02,0.14,8.59,0.0,0.0,0.0,0.0,0,0.0,0.0,1,/data_0006-0.
630097488,1766652731740722,0,0,-0.0017,0.0003,0.9995,0.0024,-0.003,0.0174,-34.1199,4.8549,39.0076,23.99,-0.03,0.14,8.59,0.0,0.0,0.0,0.0,0,0.0,0.0,1,/data_0006-0.
630141488,1766652731784722,0,0,-0.0025,-0.0003,1.0006,0.0329,-0.0106,0.0098,-32.8694,5.3943,37.1005,23.99,0.01,0.13,8.62,0.0,0.0,0.0,0.0,0,0.0,0.0,1,/data_0006-0.
630145488,1766652731788722,0,0,-0.0023,-0.0004,1.0008,0.0329,-0.0106,0.0021,-32.8694,5.3943,37.1005,23.99,0.02,0.13,8.62,0.0,0.0,0.0,0.0,0,0.0,0.0,1,/data_0006-0.
630149488,1766652731792722,0,0,-0.0024,-0.0003,1.0003,0.0405,-0.003,0.0098,-32.8694,5.3943,37.1005,23.99,0.02,0.13,8.63,0.0,0.0,0.0,0.0,0,0.0,0.0,1,/data_0006-0.
630153488,1766652731796722,0,0,-0.0022,-0.0003,1.0003,0.0481,0.0123,-0.0131,-32.8694,5.3943,37.1005,23.99,0.02,0.13,8.63,0.0,0.0,0.0,0.0,0,0.0,0.0,1,/data_0006-0.
630205488,1766652731848722,0,0,-0.0029,-0.0006,0.9984,0.0176,-0.0335,0.0098,-32.8694,5.3943,37.1005,23.99,0.06,0.12,8.68,0.0,0.0,0.0,0.0,0,0.0,0.0,1,/data_0006-0.
630209234,1766652731852468,0,0,-0.0032,-0.0004,0.9985,0.0176,-0.0335,-0.0055,-32.8694,5.3943,37.1005,23.99,0.06,0.13,8.69,0.0,0.0,0.0,0.0,0,0.0,0.0,1,/data_0006-0.
630213234,1766652731856468,0,0,-0.0032,-0.0003,0.9981,0.01,-0.0258,-0.0131,-32.8694,5.3943,37.1005,23.99,0.07,0.13,8.69,0.0,0.0,0.0,0.0,0,0.0,0.0,1,/data_0006-0.
630217488,1766652731860722,0,0,-0.003,-0.0004,0.9984,0.01,-0.0411,0.0098,-32.8694,5.3943,37.1005,23.99,0.07,0.13,8.69,0.0,0.0,0.0,0.0,0,0.0,0.0,1,/data_0006-0.
630257234,1766652731900468,0,0,-0.0028,-0.0004,0.9991,0.0253,-0.0411,-0.0208,-35.3704,5.0347,38.4875,23.99,0.04,0.14,8.69,0.0,0.0,0.0,0.0,0,0.0,0.0,1,/data_0006-0.
630261234,1766652731904468,0,0,-0.0026,-0.0002,0.9991,0.0253,-0.0411,-0.0208,-35.3704,5.0347,38.4875,23.98,0.03,0.14,8.69,0.0,0.0,0.0,0.0,0,0.0,0.0,1,/data_0006-0.
630265241,1766652731908475,0,0,-0.0027,-0.0002,0.9996,0.0405,-0.0487,-0.0284,-35.3704,5.0347,38.4875,23.98,0.03,0.14,8.68,0.0,0.0,0.0,0.0,0,0.0,0.0,1,/data_0006-0.
630269488,1766652731912722,0,0,-0.0029,0.0001,0.9996,0.0253,-0.0716,0.0098,-35.3704,5.0347,38.4875,23.98,0.02,0.14,8.68,0.0,0.0,0.0,0.0,0,0.0,0.0,1,/data_0006-0.
630325488,1766652731968722,0,0,-0.0026,0.0002,0.9988,0.0024,-0.0258,-0.0055,-35.3704,5.0347,38.4875,23.98,-0.02,0.15,8.63,0.0,0.0,0.0,0.0,0,0.0,0.0,1,/data_0006-0.
630329488,1766652731972722,0,0,-0.0025,-0.0001,0.9985,0.0024,-0.0106,-0.0055,-35.3704,5.0347,38.4875,23.98,-0.03,0.15,8.63,0.0,0.0,0.0,0.0,0,0.0,0.0,1,/data_0006-0.
630333488,1766652731976722,0,0,-0.0024,-0.0001,0.9985,0.0024,-0.003,-0.0131,-35.3704,5.0347,38.4875,23.98,-0.03,0.15,8.63,0.0,0.0,0.0,0.0,0,0.0,0.0,1,/data_0006-0.
630337488,1766652731980722,0,0,-0.0024,0.0,0.9987,0.01,-0.003,-0.036,-35.3704,5.0347,38.4875,23.98,-0.03,0.15,8.62,0.0,0.0,0.0,0.0,0,0.0,0.0,1,/data_0006-0.
630389489,1766652732032723,0,0,-0.0022,0.0004,1.0002,-0.0129,-0.0411,0.0021,-33.584,4.3154,37.794,23.99,-0.08,0.15,8.56,0.0,0.0,0.0,0.0,0,0.0,0.0,1,/data_0006-0.
630393488,1766652732036722,0,0,-0.0021,0.0007,0.9998,-0.0053,-0.0335,0.0021,-33.584,4.3154,37.794,23.99,-0.09,0.16,8.55,0.0,0.0,0.0,0.0,0,0.0,0.0,1,/data_0006-0.
630397488,1766652732040722,0,0,-0.0021,0.0005,1.0003,-0.0205,-0.0411,0.0021,-33.584,4.3154,37.794,23.99,-0.09,0.16,8.54,0.0,0.0,0.0,0.0,0,0.0,0.0,1,/data_0006-0.
630401235,1766652732044469,0,0,-0.002,0.0007,1.0007,-0.0282,-0.0335,-0.0055,-33.584,4.3154,37.794,23.98,-0.09,0.16,8.53,0.0,0.0,0.0,0.0,0,0.0,0.0,1,/data_0006-0.
630445488,1766652732088722,0,0,-0.0021,0.0007,1.0005,-0.0053,-0.003,-0.0208,-33.584,4.3154,37.794,23.99,-0.13,0.16,8.46,0.0,0.0,0.0,0.0,0,0.0,0.0,1,/data_0006-0.
630449488,1766652732092722,0,0,-0.0026,0.0007,1.0003,0.0024,0.0123,-0.0284,-33.584,4.3154,37.794,23.99,-0.13,0.16,8.46,0.0,0.0,0.0,0.0,0,0.0,0.0,1,/data_0006-0.
630453488,1766652732096722,0,0,-0.0028,0.0006,1.0004,0.0176,-0.003,-0.0284,-33.584,4.3154,37.794,23.98,-0.13,0.16,8.45,0.0,0.0,0.0,0.0,0,0.0,0.0,1,/data_0006-0.
630457488,1766652732100722,0,0,-0.0028,0.0003,1.0004,0.01,0.0047,-0.0284,-33.584,4.3154,37.794,23.98,-0.13,0.16,8.45,0.0,0.0,0.0,0.0,0,0.0,0.0,1,/data_0006-0.
630509488,1766652732152722,0,0,-0.0025,0.0007,1.0002,0.01,-0.0182,0.0098,-33.7626,4.1356,37.2739,23.98,-0.17,0.16,8.36,0.0,0.0,0.0,0.0,0,0.0,0.0,1,/data_0006-0.
630513488,1766652732156722,0,0,-0.0024,0.0005,0.9998,0.0024,-0.0258,0.0098,-33.7626,4.1356,37.2739,23.98,-0.17,0.17,8.35,0.0,0.0,0.0,0.0,0,0.0,0.0,1,/data_0006-0.
630517488,1766652732160722,0,0,-0.0023,0.0007,0.9999,-0.0129,-0.0258,0.0098,-33.7626,4.1356,37.2739,23.98,-0.17,0.17,8.35,0.0,0.0,0.0,0.0,0,0.0,0.0,1,/data_0006-0.
630521488,1766652732164722,0,0,-0.0023,0.0005,1.0002,-0.0129,-0.0258,0.0174,-33.7626,4.1356,37.2739,23.98,-0.18,0.17,8.34,0.0,0.0,0.0,0.0,0,0.0,0.0,1,/data_0006-0.
630563235,1766652732206469,0,0,-0.0026,0.0004,1.0,0.0176,-0.0411,-0.0055,-33.7626,4.1356,37.2739,23.99,-0.19,0.17,8.27,0.0,0.0,0.0,0.0,0,0.0,0.0,1,/data_0006-0.
630567234,1766652732210468,0,0,-0.0027,0.0004,1.0001,0.0176,-0.0335,-0.0055,-33.7626,4.1356,37.2739,23.99,-0.19,0.17,8.26,0.0,0.0,0.0,0.0,0,0.0,0.0,1,/data_0006-0.
630571488,1766652732214722,0,0,-0.0027,0.0007,1.0,0.0176,-0.0258,-0.0131,-33.7626,4.1356,37.2739,23.99,-0.19,0.17,8.25,0.0,0.0,0.0,0.0,0,0.0,0.0,1,/data_0006-0.
630575234,1766652732218468,0,0,-0.0028,0.0008,1.0003,0.01,-0.0411,0.0021,-33.7626,4.1356,37.2739,23.98,-0.19,0.17,8.25,0.0,0.0,0.0,0.0,0,0.0,0.0,1,/data_0006-0.
630627238,1766652732270472,0,0,-0.0025,0.0007,0.9996,-0.0129,-0.0182,-0.0436,-33.584,5.3943,39.5277,23.98,-0.15,0.16,8.22,0.0,0.0,0.0,0.0,0,0.0,0.0,1,/data_0006-0.
630631488,1766652732274722,0,0,-0.0023,0.0003,0.9996,0.0024,-0.0106,-0.0436,-33.584,5.3943,39.5277,23.98,-0.13,0.16,8.22,0.0,0.0,0.0,0.0,0,0.0,0.0,1,/data_0006-0.
630635241,1766652732278475,0,0,-0.0027,0.0003,0.9996,-0.0205,-0.0106,-0.0665,-33.584,5.3943,39.5277,23.98,-0.12,0.16,8.23,0.0,0.0,0.0,0.0,0,0.0,0.0,1,/data_0006-0.
630639488,1766652732282722,0,0,-0.0027,0.0002,0.9993,-0.0358,-0.003,-0.0513,-33.584,5.3943,39.5277,23.99,-0.11,0.16,8.24,0.0,0.0,0.0,0.0,0,0.0,0.0,1,/data_0006-0.
630684488,1766652732327722,0,0,-0.0026,0.0,0.9996,-0.0053,-0.0258,0.0021,-33.584,5.3943,39.5277,23.98,-0.01,0.14,8.3,0.0,0.0,0.0,0.0,0,0.0,0.0,1,/data_0006-0.
630688488,1766652732331722,0,0,-0.0027,-0.0001,0.9996,0.0024,-0.0411,0.0021,-33.584,5.3943,39.5277,23.98,-0.0,0.14,8.31,0.0,0.0,0.0,0.0,0,0.0,0.0,1,/data_0006-0.
630692488,1766652732335722,0,0,-0.0029,-0.0001,0.9995,0.0253,-0.0487,-0.0055,-33.584,5.3943,39.5277,23.98,0.0,0.14,8.31,0.0,0.0,0.0,0.0,0,0.0,0.0,1,/data_0006-0.
630696488,1766652732339722,0,0,-0.0027,-0.0003,0.9995,0.0253,-0.0411,0.0021,-33.584,5.3943,39.5277,23.98,0.01,0.14,8.32,0.0,0.0,0.0,0.0,0,0.0,0.0,1,/data_0006-0.
630748488,1766652732391722,0,0,-0.0029,0.0,1.0007,0.01,-0.0411,-0.0436,-33.9413,5.3943,39.1809,23.98,0.07,0.14,8.38,0.0,0.0,0.0,0.0,0,0.0,0.0,1,/data_0006-0.
630752488,1766652732395722,0,0,-0.0029,-0.0,1.001,0.01,-0.0411,-0.0208,-33.9413,5.3943,39.1809,23.98,0.07,0.14,8.38,0.0,0.0,0.0,0.0,0,0.0,0.0,1,/data_0006-0.
630756488,1766652732399722,0,0,-0.0029,-0.0,1.0012,0.0176,-0.0411,-0.036,-33.9413,5.3943,39.1809,23.98,0.07,0.14,8.39,0.0,0.0,0.0,0.0,0,0.0,0.0,1,/data_0006-0.
630760488,1766652732403722,0,0,-0.0031,0.0002,1.0009,0.01,-0.0487,-0.0208,-33.9413,5.3943,39.1809,23.98,0.07,0.14,8.39,0.0,0.0,0.0,0.0,0,0.0,0.0,1,/data_0006-0.
630804488,1766652732447722,0,0,-0.0027,-0.0003,1.0,0.0024,-0.0411,0.0098,-33.9413,5.3943,39.1809,23.98,0.09,0.14,8.43,0.0,0.0,0.0,0.0,0,0.0,0.0,1,/data_0006-0.
630808488,1766652732451722,0,0,-0.0027,-0.0001,0.9998,0.01,-0.0411,-0.0055,-33.9413,5.3943,39.1809,23.98,0.09,0.14,8.43,0.0,0.0,0.0,0.0,0,0.0,0.0,1,/data_0006-0.
630812488,1766652732455722,0,0,-0.0024,-0.0004,0.9993,0.0024,-0.0258,-0.0208,-33.9413,5.3943,39.1809,23.98,0.09,0.14,8.44,0.0,0.0,0.0,0.0,0,0.0,0.0,1,/data_0006-0.
630816488,1766652732459722,0,0,-0.0023,-0.0003,0.9995,0.0024,-0.0258,-0.0208,-33.9413,5.3943,39.1809,23.98,0.09,0.14,8.44,0.0,0.0,0.0,0.0,0,0.0,0.0,1,/data_0006-0.
630869488,1766652732512722,0,0,-0.0024,-0.0003,1.0008,0.0329,-0.0411,-0.0513,-33.9413,5.3943,39.1809,23.99,0.09,0.14,8.48,0.0,0.0,0.0,0.0,0,0.0,0.0,1,/data_0006-0.
630873488,1766652732516722,0,0,-0.0026,-0.0001,1.0008,0.0253,-0.0487,-0.0589,-33.9413,5.3943,39.1809,23.98,0.09,0.14,8.48,0.0,0.0,0.0,0.0,0,0.0,0.0,1,/data_0006-0.
630877488,1766652732520722,0,0,-0.0023,0.0,1.0009,0.0176,-0.0487,-0.0589,-33.9413,5.3943,39.1809,23.98,0.09,0.14,8.49,0.0,0.0,0.0,0.0,0,0.0,0.0,1,/data_0006-0.
630881488,1766652732524722,0,0,-0.0023,0.0001,1.0006,0.0253,-0.0411,-0.0513,-33.9413,5.3943,39.1809,23.98,0.09,0.14,8.49,0.0,0.0,0.0,0.0,0,0.0,0.0,1,/data_0006-0.
630921488,1766652732564722,0,0,-0.0022,-0.0,0.9997,0.01,-0.0258,-0.0055,-33.9413,5.3943,39.1809,23.98,0.1,0.13,8.52,0.0,0.0,0.0,0.0,0,0.0,0.0,1,/data_0006-0.
630925238,1766652732568472,0,0,-0.002,-0.0003,1.0,0.0024,-0.0106,-0.0208,-33.9413,5.3943,39.1809,23.98,0.1,0.13,8.52,0.0,0.0,0.0,0.0,0,0.0,0.0,1,/data_0006-0.
630929488,1766652732572722,0,0,-0.0022,-0.0005,1.0004,0.0024,-0.0182,-0.0208,-33.9413,5.3943,39.1809,23.98,0.1,0.13,8.52,0.0,0.0,0.0,0.0,0,0.0,0.0,1,/data_0006-0.
630933490,1766652732576724,0,0,-0.0026,-0.0006,1.0004,-0.0129,-0.0106,-0.0284,-33.9413,5.3943,39.1809,23.98,0.1,0.13,8.52,0.0,0.0,0.0,0.0,0,0.0,0.0,1,/data_0006-0.
630989488,1766652732632722,0,0,-0.0025,0.0002,0.9994,0.0329,-0.0182,-0.0208,-33.4053,4.4952,39.0076,23.99,0.1,0.13,8.56,0.0,0.0,0.0,0.0,0,0.0,0.0,1,/data_0006-0.
630993488,1766652732636722,0,0,-0.0025,0.0002,0.9996,0.0024,-0.0258,-0.0055,-33.4053,4.4952,39.0076,23.99,0.09,0.13,8.55,0.0,0.0,0.0,0.0,0,0.0,0.0,1,/data_0006-0.
630997488,1766652732640722,0,0,-0.0025,0.0001,1.0003,0.0024,-0.0106,0.0098,-33.4053,4.4952,39.0076,23.99,0.08,0.13,8.55,0.0,0.0,0.0,0.0,0,0.0,0.0,1,/data_0006-0.
631001487,1766652732644721,0,0,-0.0025,-0.0003,1.0004,0.01,-0.0182,0.0098,-33.4053,4.4952,39.0076,23.99,0.07,0.13,8.54,0.0,0.0,0.0,0.0,0,0.0,0.0,1,/data_0006-0.
631053488,1766652732696722,0,0,-0.0027,0.0003,0.9998,0.0329,-0.0106,-0.0131,-33.4053,4.4952,39.0076,23.99,-0.02,0.15,8.47,0.0,0.0,0.0,0.0,0,0.0,0.0,1,/data_0006-0.
631057488,1766652732700722,0,0,-0.0026,0.0004,0.9999,0.0329,-0.0182,-0.0131,-33.4053,4.4952,39.0076,23.98,-0.02,0.15,8.47,0.0,0.0,0.0,0.0,0,0.0,0.0,1,/data_0006-0.
631061488,1766652732704722,0,0,-0.0027,0.0002,1.0,0.0329,-0.0258,-0.0055,-33.4053,4.4952,39.0076,23.98,-0.03,0.15,8.46,0.0,0.0,0.0,0.0,0,0.0,0.0,1,/data_0006-0.
631065487,1766652732708721,0,0,-0.0024,0.0003,0.9999,0.0253,-0.0411,-0.0208,-33.4053,4.4952,39.0076,23.99,-0.03,0.15,8.46,0.0,0.0,0.0,0.0,0,0.0,0.0,1,/data_0006-0.
631105488,1766652732748722,0,0,-0.0026,0.0003,0.9994,0.0024,-0.003,-0.0513,-33.4053,4.4952,39.0076,23.97,-0.06,0.16,8.41,0.0,0.0,0.0,0.0,0,0.0,0.0,1,/data_0006-0.
631109488,1766652732752722,0,0,-0.0023,0.0005,0.9992,0.01,0.0047,-0.0131,-33.4053,4.4952,39.0076,23.97,-0.06,0.16,8.41,0.0,0.0,0.0,0.0,0,0.0,0.0,1,/data_0006-0.
631113488,1766652732756722,0,0,-0.002,0.0001,0.9992,0.01,0.0047,-0.0131,-33.4053,4.4952,39.0076,23.97,-0.06,0.16,8.4,0.0,0.0,0.0,0.0,0,0.0,0.0,1,/data_0006-0.
631117488,1766652732760722,0,0,-0.0024,0.0003,0.9992,0.01,0.0123,-0.0055,-34.1199,4.1356,39.3543,23.98,-0.07,0.16,8.4,0.0,0.0,0.0,0.0,0,0.0,0.0,1,/data_0006-0.
631173488,1766652732816722,0,0,-0.0019,-0.0003,0.9993,-0.0129,-0.0106,-0.0055,-34.1199,4.1356,39.3543,23.99,-0.15,0.16,8.29,0.0,0.0,0.0,0.0,0,0.0,0.0,1,/data_0006-0.
631177488,1766652732820722,0,0,-0.0021,-0.0001,0.9995,-0.0129,-0.0182,0.0098,-34.1199,4.1356,39.3543,23.99,-0.16,0.16,8.28,0.0,0.0,0.0,0.0,0,0.0,0.0,1,/data_0006-0.
631181488,1766652732824722,0,0,-0.0025,0.0002,0.9992,-0.0205,-0.0335,0.0174,-34.1199,4.1356,39.3543,23.99,-0.16,0.16,8.27,0.0,0.0,0.0,0.0,0,0.0,0.0,1,/data_0006-0.
631185243,1766652732828477,0,0,-0.0023,0.0004,0.999,-0.0053,-0.0258,0.025,-34.1199,4.1356,39.3543,24.0,-0.16,0.16,8.26,0.0,0.0,0.0,0.0,0,0.0,0.0,1,/data_0006-0.
631225488,1766652732868722,0,0,-0.0023,-0.0,0.9981,-0.0053,-0.0182,-0.0055,-34.1199,4.1356,39.3543,23.98,-0.19,0.15,8.2,0.0,0.0,0.0,0.0,0,0.0,0.0,1,/data_0006-0.
631229488,1766652732872722,0,0,-0.0024,-0.0003,0.9979,-0.0129,-0.0182,0.0174,-34.1199,4.1356,39.3543,23.98,-0.19,0.15,8.19,0.0,0.0,0.0,0.0,0,0.0,0.0,1,/data_0006-0.
631233488,1766652732876722,0,0,-0.0027,-0.0004,0.998,0.0024,-0.003,0.025,-34.1199,4.1356,39.3543,23.98,-0.19,0.16,8.18,0.0,0.0,0.0,0.0,0,0.0,0.0,1,/data_0006-0.
631237243,1766652732880477,0,0,-0.0026,-0.0003,0.998,-0.0129,-0.0106,0.0403,-34.1199,4.1356,39.3543,23.98,-0.19,0.16,8.18,0.0,0.0,0.0,0.0,0,0.0,0.0,1,/data_0006-0.
631293488,1766652732936722,0,0,-0.0031,-0.0008,0.9996,-0.0282,0.0047,-0.0284,-34.1199,4.1356,39.3543,23.98,-0.22,0.17,8.09,0.0,0.0,0.0,0.0,0,0.0,0.0,1,/data_0006-0.
631297488,1766652732940722,0,0,-0.0032,-0.0006,0.9996,-0.0358,-0.003,-0.0208,-34.1199,4.1356,39.3543,23.98,-0.22,0.17,8.09,0.0,0.0,0.0,0.0,0,0.0,0.0,1,/data_0006-0.
631301234,1766652732944468,0,0,-0.0031,-0.0008,0.9996,-0.0358,-0.0182,-0.0131,-34.1199,4.1356,39.3543,23.98,-0.22,0.17,8.08,0.0,0.0,0.0,0.0,0,0.0,0.0,1,/data_0006-0.
631305235,1766652732948469,0,0,-0.0031,-0.0005,0.9995,-0.0205,-0.0335,-0.036,-34.1199,4.1356,39.3543,23.98,-0.22,0.18,8.08,0.0,0.0,0.0,0.0,0,0.0,0.0,1,/data_0006-0.
631345488,1766652732988722,0,0,-0.0023,-0.0003,0.999,-0.0053,-0.0411,-0.0055,-34.1199,4.1356,39.3543,23.98,-0.22,0.17,8.02,0.0,0.0,0.0,0.0,0,0.0,0.0,1,/data_0006-0.
631349487,1766652732992721,0,0,-0.0024,-0.0006,0.9991,-0.0053,-0.0335,-0.0055,-34.1199,4.1356,39.3543,23.99,-0.22,0.17,8.02,0.0,0.0,0.0,0.0,0,0.0,0.0,1,/data_0006-0.
631353488,1766652732996722,0,0,-0.0021,-0.0005,0.9996,-0.0053,-0.0411,-0.0208,-34.1199,4.1356,39.3543,23.99,-0.22,0.17,8.01,0.0,0.0,0.0,0.0,0,0.0,0.0,1,/data_0006-0.
631357488,1766652733000722,0,0,-0.0024,-0.0004,0.9995,0.0024,-0.0335,0.0021,-34.1199,4.1356,39.3543,23.99,-0.22,0.17,8.01,0.0,0.0,0.0,0.0,0,0.0,0.0,1,/data_0006-0.
631413488,1766652733056722,0,0,-0.0016,-0.0008,0.9989,-0.0053,-0.0182,-0.0208,-33.584,4.675,37.4473,23.99,-0.15,0.15,8.01,0.0,0.0,0.0,0.0,0,0.0,0.0,1,/data_0006-0.
631417488,1766652733060722,0,0,-0.0018,-0.0008,0.999,0.0176,-0.0487,-0.0131,-33.584,4.675,37.4473,23.99,-0.15,0.15,8.01,0.0,0.0,0.0,0.0,0,0.0,0.0,1,/data_0006-0.
631421488,1766652733064722,0,0,-0.0016,-0.0007,0.9996,0.0024,-0.0564,-0.0208,-33.584,4.675,37.4473,23.99,-0.15,0.15,8.01,0.0,0.0,0.0,0.0,0,0.0,0.0,1,/data_0006-0.
631425488,1766652733068722,0,0,-0.0018,-0.0006,0.9994,0.0024,-0.0335,0.0021,-33.584,4.675,37.4473,23.98,-0.14,0.15,8.01,0.0,0.0,0.0,0.0,0,0.0,0.0,1,/data_0006-0.
631477488,1766652733120722,0,0,-0.0027,0.0001,1.0003,0.0405,0.0123,0.0098,-33.584,4.675,37.4473,23.98,-0.09,0.15,8.01,0.0,0.0,0.0,0.0,0,0.0,0.0,1,/data_0006-0.
631481488,1766652733124722,0,0,-0.0029,0.0001,0.9998,0.0329,0.0047,0.0327,-33.584,4.675,37.4473,23.98,-0.09,0.15,8.01,0.0,0.0,0.0,0.0,0,0.0,0.0,1,/data_0006-0.
631485488,1766652733128722,0,0,-0.0028,-0.0003,1.0002,0.0253,0.0047,0.025,-33.584,4.675,37.4473,23.99,-0.09,0.15,8.02,0.0,0.0,0.0,0.0,0,0.0,0.0,1,/data_0006-0.
631489487,1766652733132721,0,0,-0.0026,-0.0002,1.0,0.0253,0.0047,0.0021,-33.584,4.675,37.4473,23.99,-0.09,0.15,8.02,0.0,0.0,0.0,0.0,0,0.0,0.0,1,/data_0006-0.
631533488,1766652733176722,0,0,-0.0027,-0.0,0.9997,0.0024,-0.003,0.025,-33.4053,4.8549,38.3141,23.99,-0.04,0.14,8.04,0.0,0.0,0.0,0.0,0,0.0,0.0,1,/data_0006-0.
631537235,1766652733180469,0,0,-0.0027,0.0001,0.9998,0.0253,-0.0106,0.0327,-33.4053,4.8549,38.3141,23.99,-0.04,0.14,8.04,0.0,0.0,0.0,0.0,0,0.0,0.0,1,/data_0006-0.
631541242,1766652733184476,0,0,-0.0027,0.0002,0.9996,0.0329,-0.0106,0.0479,-33.4053,4.8549,38.3141,23.99,-0.03,0.14,8.04,0.0,0.0,0.0,0.0,0,0.0,0.0,1,/data_0006-0.
631545234,1766652733188468,0,0,-0.0029,0.0002,0.9993,0.0329,-0.0106,0.0098,-33.4053,4.8549,38.3141,23.99,-0.03,0.14,8.04,0.0,0.0,0.0,0.0,0,0.0,0.0,1,/data_0006-0.
631597235,1766652733240469,0,0,-0.0029,0.0004,0.9998,0.0024,-0.0258,0.0174,-33.4053,4.8549,38.3141,23.99,0.01,0.14,8.06,0.0,0.0,0.0,0.0,0,0.0,0.0,1,/data_0006-0.
631601235,1766652733244469,0,0,-0.0032,0.0003,0.9994,-0.0205,-0.0258,0.025,-33.4053,4.8549,38.3141,24.0,0.01,0.15,8.06,0.0,0.0,0.0,0.0,0,0.0,0.0,1,/data_0006-0.
631605234,1766652733248468,0,0,-0.003,0.0001,1.0,-0.0205,-0.0335,0.0098,-33.4053,4.8549,38.3141,23.99,0.01,0.15,8.07,0.0,0.0,0.0,0.0,0,0.0,0.0,1,/data_0006-0.
631609488,1766652733252722,0,0,-0.0029,-0.0001,0.9994,-0.0129,-0.0258,0.0021,-33.4053,4.8549,38.3141,23.99,0.01,0.15,8.07,0.0,0.0,0.0,0.0,0,0.0,0.0,1,/data_0006-0.
631646487,1766652733289721,0,0,-0.003,0.0002,1.0001,0.0253,-0.0335,0.0021,-33.4053,4.8549,38.3141,24.0,0.02,0.15,8.08,0.0,0.0,0.0,0.0,0,0.0,0.0,1,/data_0006-0.
631650488,1766652733293722,0,0,-0.0031,0.0002,1.0001,0.0253,-0.0335,-0.0055,-33.4053,4.8549,38.3141,23.99,0.02,0.15,8.08,0.0,0.0,0.0,0.0,0,0.0,0.0,1,/data_0006-0.
631654488,1766652733297722,0,0,-0.0031,0.0003,1.0003,0.0253,-0.0411,0.0021,-33.4053,4.8549,38.3141,23.99,0.02,0.15,8.08,0.0,0.0,0.0,0.0,0,0.0,0.0,1,/data_0006-0.
631658488,1766652733301722,0,0,-0.0033,0.0003,1.0002,0.0329,-0.0182,0.025,-33.4053,4.8549,38.3141,23.99,0.02,0.15,8.08,0.0,0.0,0.0,0.0,0,0.0,0.0,1,/data_0006-0.
631714488,1766652733357722,0,0,-0.0025,0.0002,0.9989,0.0405,-0.0106,-0.0131,-33.4053,4.8549,38.3141,23.99,0.03,0.15,8.1,0.0,0.0,0.0,0.0,0,0.0,0.0,1,/data_0006-0.
631718488,1766652733361722,0,0,-0.0024,0.0001,0.9991,0.0253,-0.0106,-0.0055,-33.4053,4.8549,38.3141,23.99,0.03,0.15,8.1,0.0,0.0,0.0,0.0,0,0.0,0.0,1,/data_0006-0.
631722488,1766652733365722,0,0,-0.0028,0.0,0.9989,0.0253,-0.003,0.0021,-33.4053,4.8549,38.3141,23.99,0.03,0.15,8.1,0.0,0.0,0.0,0.0,0,0.0,0.0,1,/data_0006-0.
631726488,1766652733369722,0,0,-0.0031,-0.0,0.9992,0.0253,-0.003,0.0021,-33.4053,4.8549,38.3141,23.98,0.03,0.15,8.1,0.0,0.0,0.0,0.0,0,0.0,0.0,1,/data_0006-0.
631770488,1766652733413722,0,0,-0.0026,-0.0001,0.9996,0.0176,-0.003,0.0021,-33.2267,3.9558,39.1809,23.99,-0.03,0.17,8.05,0.0,0.0,0.0,0.0,0,0.0,0.0,1,/data_0006-0.
631774487,1766652733417721,0,0,-0.0028,-0.0003,1.0,0.0253,-0.003,0.0174,-33.2267,3.9558,39.1809,23.99,-0.04,0.17,8.04,0.0,0.0,0.0,0.0,0,0.0,0.0,1,/data_0006-0.
631778488,1766652733421722,0,0,-0.0026,-0.0,0.9995,0.0329,-0.003,0.025,-33.2267,3.9558,39.1809,23.99,-0.05,0.17,8.03,0.0,0.0,0.0,0.0,0,0.0,0.0,1,/data_0006-0.
631782488,1766652733425722,0,0,-0.0027,0.0002,0.9996,0.0329,-0.003,0.025,-33.2267,3.9558,39.1809,23.99,-0.05,0.17,8.03,0.0,0.0,0.0,0.0,0,0.0,0.0,1,/data_0006-0.
631834488,1766652733477722,0,0,-0.0026,0.0007,0.9993,0.0405,-0.0106,0.0021,-33.2267,3.9558,39.1809,23.99,-0.11,0.17,7.94,0.0,0.0,0.0,0.0,0,0.0,0.0,1,/data_0006-0.
631838488,1766652733481722,0,0,-0.003,0.0007,0.9998,0.0481,-0.0335,0.0021,-33.2267,3.9558,39.1809,23.99,-0.11,0.17,7.93,0.0,0.0,0.0,0.0,0,0.0,0.0,1,/data_0006-0.
631842241,1766652733485475,0,0,-0.0031,0.0002,0.9995,0.0329,-0.0335,0.0021,-33.2267,3.9558,39.1809,23.99,-0.12,0.17,7.93,0.0,0.0,0.0,0.0,0,0.0,0.0,1,/data_0006-0.
631846234,1766652733489468,0,0,-0.0029,0.0002,0.9996,0.01,-0.0335,0.0174,-33.2267,3.9558,39.1809,23.99,-0.12,0.17,7.92,0.0,0.0,0.0,0.0,0,0.0,0.0,1,/data_0006-0.
631890234,1766652733533468,0,0,-0.0021,0.0002,0.9998,0.01,-0.0335,0.0098,-34.4772,6.2933,38.3141,23.98,-0.02,0.15,7.98,0.0,0.0,0.0,0.0,0,0.0,0.0,1,/data_0006-0.
631894488,1766652733537722,0,0,-0.0023,0.0003,0.9998,0.0253,-0.0335,0.0021,-34.4772,6.2933,38.3141,23.99,0.0,0.15,8.0,0.0,0.0,0.0,0.0,0,0.0,0.0,1,/data_0006-0.
631898237,1766652733541471,0,0,-0.0022,-0.0,1.0,0.0329,-0.0335,-0.0055,-34.4772,6.2933,38.3141,23.98,0.02,0.15,8.01,0.0,0.0,0.0,0.0,0,0.0,0.0,1,/data_0006-0.
631906235,1766652733549469,0,0,-0.0023,0.0001,0.9996,0.0329,-0.0335,0.0174,-34.4772,6.2933,38.3141,23.98,0.05,0.14,8.04,0.0,0.0,0.0,0.0,0,0.0,0.0,1,/data_0006-0.
631954488,1766652733597722,0,0,-0.002,-0.0004,0.9993,-0.0053,-0.003,0.0174,-34.4772,6.2933,38.3141,24.0,0.18,0.11,8.2,0.0,0.0,0.0,0.0,0,0.0,0.0,1,/data_0006-0.
631958488,1766652733601722,0,0,-0.002,-0.0004,0.9993,0.0024,-0.003,0.0098,-34.4772,6.2933,38.3141,24.0,0.19,0.11,8.21,0.0,0.0,0.0,0.0,0,0.0,0.0,1,/data_0006-0.
631962488,1766652733605722,0,0,-0.002,-0.0006,0.9992,0.01,0.0047,0.0174,-34.4772,6.2933,38.3141,23.99,0.19,0.11,8.23,0.0,0.0,0.0,0.0,0,0.0,0.0,1,/data_0006-0.
631966488,1766652733609722,0,0,-0.0018,-0.0008,0.9993,0.0176,0.0047,0.0174,-34.4772,6.2933,38.3141,23.99,0.2,0.1,8.24,0.0,0.0,0.0,0.0,0,0.0,0.0,1,/data_0006-0.
632010488,1766652733653722,0,0,-0.0025,0.0002,1.0001,0.0024,-0.0106,0.0098,-34.2985,4.675,38.1407,23.98,0.18,0.1,8.29,0.0,0.0,0.0,0.0,0,0.0,0.0,1,/data_0006-0.
632014488,1766652733657722,0,0,-0.0024,0.0003,1.0,-0.0053,-0.003,0.0098,-34.2985,4.675,38.1407,23.98,0.17,0.1,8.29,0.0,0.0,0.0,0.0,0,0.0,0.0,1,/data_0006-0.
632018488,1766652733661722,0,0,-0.0024,-0.0,0.9998,-0.0053,-0.0106,0.0098,-34.2985,4.675,38.1407,23.98,0.16,0.1,8.28,0.0,0.0,0.0,0.0,0,0.0,0.0,1,/data_0006-0.
632022488,1766652733665722,0,0,-0.0021,-0.0001,0.9995,-0.0053,-0.0182,-0.0055,-34.2985,4.675,38.1407,23.99,0.16,0.1,8.28,0.0,0.0,0.0,0.0,0,0.0,0.0,1,/data_0006-0.
632074488,1766652733717722,0,0,-0.0029,-0.0,0.9997,-0.0053,-0.0335,-0.0436,-34.2985,4.675,38.1407,23.98,0.06,0.12,8.23,0.0,0.0,0.0,0.0,0,0.0,0.0,1,/data_0006-0.
632078488,1766652733721722,0,0,-0.0029,0.0,0.9998,0.0024,-0.0258,-0.0131,-34.2985,4.675,38.1407,23.98,0.06,0.13,8.23,0.0,0.0,0.0,0.0,0,0.0,0.0,1,/data_0006-0.
632082488,1766652733725722,0,0,-0.0031,-0.0001,0.9994,-0.0053,-0.0106,-0.0284,-34.2985,4.675,38.1407,23.98,0.05,0.13,8.22,0.0,0.0,0.0,0.0,0,0.0,0.0,1,/data_0006-0.
632086488,1766652733729722,0,0,-0.0028,0.0002,0.999,-0.0205,-0.003,-0.0284,-34.2985,4.675,38.1407,23.98,0.05,0.13,8.22,0.0,0.0,0.0,0.0,0,0.0,0.0,1,/data_0006-0.
632130488,1766652733773722,0,0,-0.0024,0.0002,0.9999,0.0176,-0.0182,-0.0055,-34.2985,5.0347,37.4473,23.98,0.02,0.14,8.2,0.0,0.0,0.0,0.0,0,0.0,0.0,1,/data_0006-0.
632134488,1766652733777722,0,0,-0.0026,0.0003,1.0001,0.0176,-0.0182,-0.0208,-34.2985,5.0347,37.4473,23.98,0.02,0.14,8.2,0.0,0.0,0.0,0.0,0,0.0,0.0,1,/data_0006-0.
632138488,1766652733781722,0,0,-0.0027,0.0005,0.9994,0.0176,-0.0106,-0.0055,-34.2985,5.0347,37.4473,23.98,0.02,0.14,8.2,0.0,0.0,0.0,0.0,0,0.0,0.0,1,/data_0006-0.
632142488,1766652733785722,0,0,-0.0025,0.0005,0.9994,0.0253,-0.0258,0.0098,-34.2985,5.0347,37.4473,23.98,0.02,0.14,8.2,0.0,0.0,0.0,0.0,0,0.0,0.0,1,/data_0006-0.
632194235,1766652733837469,0,0,-0.0032,-0.0004,0.9978,0.0176,-0.0106,-0.036,-34.2985,5.0347,37.4473,23.98,0.02,0.14,8.21,0.0,0.0,0.0,0.0,0,0.0,0.0,1,/data_0006-0.
632198488,1766652733841722,0,0,-0.0034,-0.0001,0.9982,0.01,-0.003,-0.0284,-34.2985,5.0347,37.4473,23.98,0.02,0.14,8.21,0.0,0.0,0.0,0.0,0,0.0,0.0,1,/data_0006-0.
632202488,1766652733845722,0,0,-0.0034,-0.0003,0.9982,-0.0053,-0.0182,-0.0131,-34.2985,5.0347,37.4473,23.98,0.02,0.14,8.22,0.0,0.0,0.0,0.0,0,0.0,0.0,1,/data_0006-0.
632206488,1766652733849722,0,0,-0.0034,-0.0003,0.998,-0.0129,-0.0106,-0.0055,-34.2985,5.0347,37.4473,23.98,0.02,0.14,8.22,0.0,0.0,0.0,0.0,0,0.0,0.0,1,/data_0006-0.
632250234,1766652733893468,0,0,-0.0032,0.0,0.9996,-0.0053,0.0047,-0.0131,-35.0131,4.675,39.1809,23.99,0.01,0.16,8.22,0.0,0.0,0.0,0.0,0,0.0,0.0,1,/data_0006-0.
632254488,1766652733897722,0,0,-0.0033,0.0002,1.0003,-0.0053,-0.0106,0.0021,-35.0131,4.675,39.1809,23.99,0.01,0.16,8.21,0.0,0.0,0.0,0.0,0,0.0,0.0,1,/data_0006-0.
632258488,1766652733901722,0,0,-0.0033,0.0002,1.0007,-0.0053,-0.003,0.0174,-35.0131,4.675,39.1809,23.99,0.01,0.16,8.21,0.0,0.0,0.0,0.0,0,0.0,0.0,1,/data_0006-0.
632262488,1766652733905722,0,0,-0.0034,0.0002,1.0007,0.01,-0.0182,0.0174,-35.0131,4.675,39.1809,23.99,0.0,0.16,8.21,0.0,0.0,0.0,0.0,0,0.0,0.0,1,/data_0006-0.
632314488,1766652733957722,0,0,-0.0032,0.0004,0.9995,0.0024,0.0047,-0.036,-35.0131,4.675,39.1809,23.99,-0.03,0.17,8.16,0.0,0.0,0.0,0.0,0,0.0,0.0,1,/data_0006-0.
632318488,1766652733961722,0,0,-0.0031,0.0007,0.999,0.0024,0.0123,-0.0436,-35.0131,4.675,39.1809,23.98,-0.03,0.17,8.16,0.0,0.0,0.0,0.0,0,0.0,0.0,1,/data_0006-0.
632322488,1766652733965722,0,0,-0.0031,0.0003,0.9993,-0.0129,0.0047,-0.036,-35.0131,4.675,39.1809,23.99,-0.03,0.17,8.16,0.0,0.0,0.0,0.0,0,0.0,0.0,1,/data_0006-0.
632326488,1766652733969722,0,0,-0.0031,0.0006,0.9993,-0.0129,-0.0106,-0.0284,-35.0131,4.675,39.1809,23.99,-0.03,0.17,8.15,0.0,0.0,0.0,0.0,0,0.0,0.0,1,/data_0006-0.
632371488,1766652734014722,0,0,-0.003,0.0005,0.9996,0.0253,0.0047,0.0021,-33.7626,4.8549,38.6608,23.99,-0.05,0.18,8.12,0.0,0.0,0.0,0.0,0,0.0,0.0,1,/data_0006-0.
632375488,1766652734018722,0,0,-0.0031,0.0002,0.9996,0.0253,-0.003,-0.0131,-33.7626,4.8549,38.6608,23.98,-0.04,0.18,8.12,0.0,0.0,0.0,0.0,0,0.0,0.0,1,/data_0006-0.
632379488,1766652734022722,0,0,-0.0031,0.0004,0.9996,0.0253,-0.003,-0.0436,-33.7626,4.8549,38.6608,23.99,-0.04,0.18,8.13,0.0,0.0,0.0,0.0,0,0.0,0.0,1,/data_0006-0.
632383488,1766652734026722,0,0,-0.003,0.0003,0.9998,0.0176,-0.003,-0.0513,-33.7626,4.8549,38.6608,23.99,-0.04,0.18,8.13,0.0,0.0,0.0,0.0,0,0.0,0.0,1,/data_0006-0.
632435488,1766652734078722,0,0,-0.0034,0.001,0.9993,-0.0358,-0.0106,0.0021,-33.7626,4.8549,38.6608,23.99,-0.01,0.17,8.13,0.0,0.0,0.0,0.0,0,0.0,0.0,1,/data_0006-0.
632439488,1766652734082722,0,0,-0.0034,0.0009,0.9993,-0.0434,-0.0182,0.0174,-33.7626,4.8549,38.6608,23.99,-0.0,0.17,8.13,0.0,0.0,0.0,0.0,0,0.0,0.0,1,/data_0006-0.
632443488,1766652734086722,0,0,-0.0034,0.0005,0.9989,-0.0282,-0.0182,0.025,-33.7626,4.8549,38.6608,23.99,-0.0,0.17,8.14,0.0,0.0,0.0,0.0,0,0.0,0.0,1,/data_0006-0.
632447488,1766652734090722,0,0,-0.0035,0.0002,0.9992,-0.0358,-0.0182,0.0479,-33.7626,4.8549,38.6608,23.99,-0.0,0.17,8.14,0.0,0.0,0.0,0.0,0,0.0,0.0,1,/data_0006-0.
632488488,1766652734131722,0,0,-0.0024,0.0001,0.9991,-0.0205,-0.0182,-0.0284,-33.7626,4.8549,38.6608,23.98,0.0,0.17,8.14,0.0,0.0,0.0,0.0,0,0.0,0.0,1,/data_0006-0.
632492488,1766652734135722,0,0,-0.0023,0.0004,0.999,-0.0129,-0.0258,-0.036,-33.7626,4.8549,38.6608,23.99,0.0,0.17,8.14,0.0,0.0,0.0,0.0,0,0.0,0.0,1,/data_0006-0.
632496488,1766652734139722,0,0,-0.002,0.0007,0.9999,-0.0129,-0.0258,-0.0513,-33.584,4.675,39.1809,23.99,0.01,0.17,8.14,0.0,0.0,0.0,0.0,0,0.0,0.0,1,/data_0006-0.
632500488,1766652734143722,0,0,-0.0023,0.0008,1.0,-0.0129,-0.0258,-0.036,-33.584,4.675,39.1809,23.98,0.0,0.17,8.14,0.0,0.0,0.0,0.0,0,0.0,0.0,1,/data_0006-0.
632552488,1766652734195722,0,0,-0.0031,0.0008,0.9998,0.0176,0.0047,-0.0055,-33.584,4.675,39.1809,23.99,-0.0,0.17,8.12,0.0,0.0,0.0,0.0,0,0.0,0.0,1,/data_0006-0.
632556488,1766652734199722,0,0,-0.0031,0.0005,0.9996,0.0176,-0.003,0.0174,-33.584,4.675,39.1809,23.99,-0.0,0.17,8.12,0.0,0.0,0.0,0.0,0,0.0,0.0,1,/data_0006-0.
632560488,1766652734203722,0,0,-0.0032,0.0007,0.9996,0.0176,-0.003,0.025,-33.584,4.675,39.1809,23.99,-0.0,0.17,8.12,0.0,0.0,0.0,0.0,0,0.0,0.0,1,/data_0006-0.
632564488,1766652734207722,0,0,-0.0029,0.0007,0.9996,0.01,-0.003,0.0327,-33.584,4.675,39.1809,23.99,-0.0,0.17,8.12,0.0,0.0,0.0,0.0,0,0.0,0.0,1,/data_0006-0.
632620488,1766652734263722,0,0,-0.0023,0.0006,0.9996,0.0024,-0.0258,0.0327,-33.584,4.675,39.1809,24.0,-0.0,0.16,8.11,0.0,0.0,0.0,0.0,0,0.0,0.0,1,/data_0006-0.
632624488,1766652734267722,0,0,-0.0023,0.0006,1.0002,0.0176,-0.0258,0.0174,-33.584,4.675,39.1809,24.0,-0.0,0.16,8.11,0.0,0.0,0.0,0.0,0,0.0,0.0,1,/data_0006-0.
632628488,1766652734271722,0,0,-0.002,0.0007,1.0003,0.0024,-0.0258,0.0098,-33.584,4.675,39.1809,24.0,-0.0,0.16,8.1,0.0,0.0,0.0,0.0,0,0.0,0.0,1,/data_0006-0.
632632488,1766652734275722,0,0,-0.0021,0.0003,1.0005,0.0024,-0.0411,0.0021,-33.584,4.675,39.1809,24.0,-0.0,0.16,8.1,0.0,0.0,0.0,0.0,0,0.0,0.0,1,/data_0006-0.
632672488,1766652734315722,0,0,-0.0025,-0.0001,0.9996,0.0176,-0.0258,0.025,-33.584,4.675,39.1809,24.0,-0.02,0.16,8.1,0.0,0.0,0.0,0.0,0,0.0,0.0,1,/data_0006-0.
632676488,1766652734319722,0,0,-0.0024,0.0002,0.9995,0.0176,-0.0258,0.025,-33.584,4.675,39.1809,24.0,-0.02,0.16,8.09,0.0,0.0,0.0,0.0,0,0.0,0.0,1,/data_0006-0.
632680488,1766652734323722,0,0,-0.0024,0.0002,0.9993,0.01,-0.0106,-0.0055,-33.584,4.675,39.1809,24.0,-0.02,0.16,8.09,0.0,0.0,0.0,0.0,0,0.0,0.0,1,/data_0006-0.
632684488,1766652734327722,0,0,-0.0025,0.0003,0.9993,0.01,-0.003,0.0021,-33.584,4.675,39.1809,24.0,-0.02,0.16,8.09,0.0,0.0,0.0,0.0,0,0.0,0.0,1,/data_0006-0.
632737488,1766652734380722,0,0,-0.0029,-0.0001,0.9992,-0.0129,0.0123,0.0174,-33.584,4.675,39.1809,23.98,-0.02,0.16,8.08,0.0,0.0,0.0,0.0,0,0.0,0.0,1,/data_0006-0.
632741488,1766652734384722,0,0,-0.0031,-0.0001,0.9993,-0.0205,0.0123,0.025,-33.584,4.675,39.1809,23.98,-0.02,0.16,8.08,0.0,0.0,0.0,0.0,0,0.0,0.0,1,/data_0006-0.
632745488,1766652734388722,0,0,-0.0032,-0.0002,1.0001,-0.0205,-0.003,0.0174,-34.8344,4.8549,39.0076,23.98,-0.02,0.16,8.08,0.0,0.0,0.0,0.0,0,0.0,0.0,1,/data_0006-0.
632749488,1766652734392722,0,0,-0.0033,-0.0001,0.9995,-0.0282,-0.003,0.0098,-34.8344,4.8549,39.0076,23.99,-0.02,0.16,8.08,0.0,0.0,0.0,0.0,0,0.0,0.0,1,/data_0006-0.
632793234,1766652734436468,0,0,-0.0023,-0.0004,0.9999,-0.0053,-0.0182,0.0403,-34.8344,4.8549,39.0076,24.0,-0.03,0.16,8.07,0.0,0.0,0.0,0.0,0,0.0,0.0,1,/data_0006-0.
632797241,1766652734440475,0,0,-0.0024,-0.0004,0.9996,0.01,-0.0258,0.025,-34.8344,4.8549,39.0076,24.0,-0.03,0.16,8.07,0.0,0.0,0.0,0.0,0,0.0,0.0,1,/data_0006-0.
632801234,1766652734444468,0,0,-0.0024,-0.0004,0.9995,0.01,-0.0335,-0.0055,-34.8344,4.8549,39.0076,24.0,-0.03,0.16,8.07,0.0,0.0,0.0,0.0,0,0.0,0.0,1,/data_0006-0.
632805488,1766652734448722,0,0,-0.0024,-0.0006,0.9993,0.0176,-0.0335,0.0098,-34.8344,4.8549,39.0076,24.0,-0.03,0.16,8.07,0.0,0.0,0.0,0.0,0,0.0,0.0,1,/data_0006-0.
632857492,1766652734500726,0,0,-0.0024,-0.0003,0.999,0.0253,-0.0258,-0.0055,-34.8344,4.8549,39.0076,23.99,-0.04,0.15,8.07,0.0,0.0,0.0,0.0,0,0.0,0.0,1,/data_0006-0.
632861238,1766652734504472,0,0,-0.0025,-0.0003,0.9992,0.0176,-0.0258,-0.0208,-34.8344,4.8549,39.0076,23.99,-0.04,0.15,8.07,0.0,0.0,0.0,0.0,0,0.0,0.0,1,/data_0006-0.
632865234,1766652734508468,0,0,-0.0025,-0.0005,0.9994,0.0024,-0.0564,-0.0284,-34.8344,4.8549,39.0076,23.99,-0.04,0.15,8.07,0.0,0.0,0.0,0.0,0,0.0,0.0,1,/data_0006-0.
632869234,1766652734512468,0,0,-0.0025,-0.0004,0.9997,0.0024,-0.0487,-0.0284,-34.8344,4.8549,39.0076,23.99,-0.04,0.15,8.07,0.0,0.0,0.0,0.0,0,0.0,0.0,1,/data_0006-0.
632914489,1766652734557723,0,0,-0.0021,-0.0006,1.0003,0.0176,-0.0411,0.0174,-34.4772,4.1356,37.6206,24.0,-0.11,0.16,7.99,0.0,0.0,0.0,0.0,0,0.0,0.0,1,/data_0006-0.
632918488,1766652734561722,0,0,-0.0021,-0.0005,1.0007,0.01,-0.0258,0.0098,-34.4772,4.1356,37.6206,24.0,-0.11,0.16,7.98,0.0,0.0,0.0,0.0,0,0.0,0.0,1,/data_0006-0.
632922488,1766652734565722,0,0,-0.0021,-0.0004,1.0006,0.0405,-0.0258,0.0021,-34.4772,4.1356,37.6206,24.0,-0.12,0.16,7.98,0.0,0.0,0.0,0.0,0,0.0,0.0,1,/data_0006-0.
632978488,1766652734621722,0,0,-0.0027,-0.0,0.999,0.0253,-0.0106,0.0021,-34.4772,4.1356,37.6206,23.98,-0.15,0.16,7.9,0.0,0.0,0.0,0.0,0,0.0,0.0,1,/data_0006-0.
632986488,1766652734629722,0,0,-0.0027,-0.0002,0.9981,0.0329,-0.0182,0.025,-34.4772,4.1356,37.6206,23.98,-0.16,0.17,7.89,0.0,0.0,0.0,0.0,0,0.0,0.0,1,/data_0006-0.
632990488,1766652734633722,0,0,-0.0027,-0.0001,0.9987,0.0176,-0.0182,0.025,-34.4772,4.1356,37.6206,23.98,-0.16,0.17,7.88,0.0,0.0,0.0,0.0,0,0.0,0.0,1,/data_0006-0.
632994488,1766652734637722,0,0,-0.0029,-0.0003,0.9982,0.0176,-0.0182,0.0098,-34.4772,4.1356,37.6206,23.98,-0.16,0.17,7.88,0.0,0.0,0.0,0.0,0,0.0,0.0,1,/data_0006-0.
633022488,1766652734665722,0,0,-0.0029,-0.0004,0.9991,0.0253,-0.0182,0.0174,-34.4772,4.1356,37.6206,23.98,-0.17,0.17,7.84,0.0,0.0,0.0,0.0,0,0.0,0.0,1,/data_0006-0.
633026488,1766652734669722,0,0,-0.003,-0.0004,0.999,0.0024,-0.0335,0.0174,-34.4772,4.1356,37.6206,23.98,-0.17,0.17,7.84,0.0,0.0,0.0,0.0,0,0.0,0.0,1,/data_0006-0.
633030488,1766652734673722,0,0,-0.0029,-0.0006,0.9989,0.01,-0.0182,0.0327,-34.4772,4.1356,37.6206,23.98,-0.18,0.17,7.83,0.0,0.0,0.0,0.0,0,0.0,0.0,1,/data_0006-0.
633034488,1766652734677722,0,0,-0.0027,-0.0004,0.9986,0.01,-0.0335,0.0327,-34.4772,4.1356,37.6206,23.98,-0.18,0.17,7.83,0.0,0.0,0.0,0.0,0,0.0,0.0,1,/data_0006-0.
633086488,1766652734729722,0,0,-0.0027,-0.0,0.9994,0.0329,-0.0182,0.0327,-34.4772,4.1356,37.6206,23.99,-0.18,0.17,7.77,0.0,0.0,0.0,0.0,0,0.0,0.0,1,/data_0006-0.
633090488,1766652734733722,0,0,-0.0026,-0.0001,0.9992,0.0329,-0.0106,0.0327,-34.4772,4.1356,37.6206,23.98,-0.18,0.17,7.76,0.0,0.0,0.0,0.0,0,0.0,0.0,1,/data_0006-0.
633094734,1766652734737968,0,0,-0.0022,0.0002,0.999,0.0253,-0.0106,0.0479,-34.4772,4.1356,37.6206,23.99,-0.18,0.17,7.76,0.0,0.0,0.0,0.0,0,0.0,0.0,1,/data_0006-0.
633098488,1766652734741722,0,0,-0.0025,-0.0001,0.999,0.0176,-0.0106,0.0327,-34.4772,4.1356,37.6206,23.99,-0.18,0.17,7.75,0.0,0.0,0.0,0.0,0,0.0,0.0,1,/data_0006-0.
633142488,1766652734785722,0,0,-0.0025,0.0006,0.9998,0.0024,-0.0106,0.0174,-34.1199,5.9337,39.0076,23.99,-0.07,0.15,7.8,0.0,0.0,0.0,0.0,0,0.0,0.0,1,/data_0006-0.
633146488,1766652734789722,0,0,-0.0023,0.0008,1.0,0.0024,-0.0182,0.0479,-34.1199,5.9337,39.0076,23.99,-0.05,0.15,7.82,0.0,0.0,0.0,0.0,0,0.0,0.0,1,/data_0006-0.
633150235,1766652734793469,0,0,-0.0024,0.0008,1.0,0.01,-0.0182,0.0555,-34.1199,5.9337,39.0076,23.99,-0.03,0.15,7.83,0.0,0.0,0.0,0.0,0,0.0,0.0,1,/data_0006-0.
633154242,1766652734797476,0,0,-0.002,0.0008,1.0,0.01,-0.0182,0.0403,-34.1199,5.9337,39.0076,24.0,-0.02,0.15,7.84,0.0,0.0,0.0,0.0,0,0.0,0.0,1,/data_0006-0.
633207488,1766652734850722,0,0,-0.0024,0.0,0.9997,0.0176,-0.0258,0.0327,-34.1199,5.9337,39.0076,23.99,0.14,0.11,8.0,0.0,0.0,0.0,0.0,0,0.0,0.0,1,/data_0006-0.
633211488,1766652734854722,0,0,-0.0026,-0.0003,0.999,0.0176,-0.0182,0.0479,-34.1199,5.9337,39.0076,24.0,0.15,0.11,8.01,0.0,0.0,0.0,0.0,0,0.0,0.0,1,/data_0006-0.
633215488,1766652734858722,0,0,-0.0029,-0.0003,0.9986,0.0176,-0.0258,0.0403,-34.1199,5.9337,39.0076,24.0,0.16,0.11,8.02,0.0,0.0,0.0,0.0,0,0.0,0.0,1,/data_0006-0.
633219488,1766652734862722,0,0,-0.0031,-0.0001,0.9986,0.0253,-0.0258,0.025,-34.1199,5.9337,39.0076,23.99,0.16,0.11,8.03,0.0,0.0,0.0,0.0,0,0.0,0.0,1,/data_0006-0.
633263488,1766652734906722,0,0,-0.0024,0.0001,1.0006,0.0024,-0.0106,-0.036,-34.4772,5.2145,40.0478,23.99,0.19,0.11,8.11,0.0,0.0,0.0,0.0,0,0.0,0.0,1,/data_0006-0.
633271488,1766652734914722,0,0,-0.0028,0.0002,1.0006,0.0024,-0.0106,-0.0436,-34.4772,5.2145,40.0478,24.0,0.19,0.11,8.11,0.0,0.0,0.0,0.0,0,0.0,0.0,1,/data_0006-0.
633275487,1766652734918721,0,0,-0.0025,0.0003,1.0,-0.0053,-0.0182,-0.0284,-34.4772,5.2145,40.0478,24.0,0.18,0.12,8.12,0.0,0.0,0.0,0.0,0,0.0,0.0,1,/data_0006-0.
633279488,1766652734922722,0,0,-0.0023,0.0003,1.0,0.0024,-0.0258,-0.0208,-34.4772,5.2145,40.0478,24.0,0.18,0.12,8.12,0.0,0.0,0.0,0.0,0,0.0,0.0,1,/data_0006-0.
633327488,1766652734970722,0,0,-0.0026,-0.0005,1.0004,0.01,-0.003,0.0174,-34.4772,5.2145,40.0478,23.99,0.15,0.12,8.14,0.0,0.0,0.0,0.0,0,0.0,0.0,1,/data_0006-0.
633331488,1766652734974722,0,0,-0.0026,-0.0002,1.0004,0.01,0.0047,0.0098,-34.4772,5.2145,40.0478,23.98,0.15,0.12,8.14,0.0,0.0,0.0,0.0,0,0.0,0.0,1,/data_0006-0.
633335488,1766652734978722,0,0,-0.0023,-0.0003,1.0004,-0.0053,0.0047,0.0327,-34.4772,5.2145,40.0478,23.98,0.14,0.12,8.14,0.0,0.0,0.0,0.0,0,0.0,0.0,1,/data_0006-0.
633339487,1766652734982721,0,0,-0.0022,-0.0001,0.9998,-0.0129,0.0047,0.0098,-34.4772,5.2145,40.0478,23.99,0.14,0.12,8.15,0.0,0.0,0.0,0.0,0,0.0,0.0,1,/data_0006-0.
633383488,1766652735026722,0,0,-0.0023,-0.0002,0.9999,0.01,-0.0335,0.0555,-34.8344,5.5741,39.0076,23.99,0.13,0.12,8.18,0.0,0.0,0.0,0.0,0,0.0,0.0,1,/data_0006-0.
633391488,1766652735034722,0,0,-0.0026,0.0002,1.0003,0.0024,-0.0411,0.0555,-34.8344,5.5741,39.0076,23.99,0.13,0.12,8.19,0.0,0.0,0.0,0.0,0,0.0,0.0,1,/data_0006-0.
633396487,1766652735039721,0,0,-0.0026,0.0002,1.0004,0.0024,-0.0487,0.0479,-34.8344,5.5741,39.0076,23.99,0.14,0.12,8.19,0.0,0.0,0.0,0.0,0,0.0,0.0,1,/data_0006-0.
633400488,1766652735043722,0,0,-0.0029,-0.0001,1.0005,-0.0129,-0.0487,0.0174,-34.8344,5.5741,39.0076,23.99,0.14,0.12,8.2,0.0,0.0,0.0,0.0,0,0.0,0.0,1,/data_0006-0.
633448234,1766652735091468,0,0,-0.0023,0.0,0.9996,0.0024,-0.0258,0.0174,-34.8344,5.5741,39.0076,23.99,0.15,0.12,8.25,0.0,0.0,0.0,0.0,0,0.0,0.0,1,/data_0006-0.
633452489,1766652735095723,0,0,-0.0022,0.0001,0.9995,-0.0129,-0.0335,0.0174,-34.8344,5.5741,39.0076,23.98,0.15,0.12,8.26,0.0,0.0,0.0,0.0,0,0.0,0.0,1,/data_0006-0.
633456236,1766652735099470,0,0,-0.0025,-0.0002,0.9995,-0.0129,-0.0258,0.0021,-34.8344,5.5741,39.0076,23.98,0.15,0.12,8.26,0.0,0.0,0.0,0.0,0,0.0,0.0,1,/data_0006-0.
633460243,1766652735103477,0,0,-0.0024,-0.0001,0.9992,-0.0129,-0.0258,0.0021,-34.8344,5.5741,39.0076,23.98,0.15,0.12,8.27,0.0,0.0,0.0,0.0,0,0.0,0.0,1,/data_0006-0.
633500234,1766652735143468,0,0,-0.0027,0.0003,0.9988,0.01,-0.0258,0.025,-33.4053,5.9337,38.6608,23.98,0.16,0.12,8.31,0.0,0.0,0.0,0.0,0,0.0,0.0,1,/data_0006-0.
633504488,1766652735147722,0,0,-0.0027,0.0004,0.999,0.0253,-0.0258,0.0327,-33.4053,5.9337,38.6608,23.98,0.16,0.12,8.32,0.0,0.0,0.0,0.0,0,0.0,0.0,1,/data_0006-0.
633508488,1766652735151722,0,0,-0.0024,0.0002,0.9991,0.0176,-0.0182,0.0174,-33.4053,5.9337,38.6608,23.98,0.17,0.12,8.33,0.0,0.0,0.0,0.0,0,0.0,0.0,1,/data_0006-0.
633512488,1766652735155722,0,0,-0.0026,-0.0001,0.9995,0.0176,-0.0335,0.0098,-33.4053,5.9337,38.6608,23.98,0.18,0.12,8.34,0.0,0.0,0.0,0.0,0,0.0,0.0,1,/data_0006-0.
633564488,1766652735207722,0,0,-0.0024,0.0002,1.0006,0.0253,-0.0182,0.0174,-33.4053,5.9337,38.6608,24.0,0.23,0.11,8.46,0.0,0.0,0.0,0.0,0,0.0,0.0,1,/data_0006-0.
633568488,1766652735211722,0,0,-0.0024,0.0005,1.0002,0.0253,-0.0258,0.0098,-33.4053,5.9337,38.6608,24.0,0.23,0.11,8.47,0.0,0.0,0.0,0.0,0,0.0,0.0,1,/data_0006-0.
633572488,1766652735215722,0,0,-0.0023,0.0007,1.0,0.0329,-0.0335,0.0021,-33.4053,5.9337,38.6608,24.0,0.24,0.11,8.48,0.0,0.0,0.0,0.0,0,0.0,0.0,1,/data_0006-0.
633576488,1766652735219722,0,0,-0.0024,0.0005,1.0,0.0405,-0.0335,0.0021,-33.4053,5.9337,38.6608,24.0,0.24,0.11,8.49,0.0,0.0,0.0,0.0,0,0.0,0.0,1,/data_0006-0.
633620488,1766652735263722,0,0,-0.0016,0.0,0.9982,0.01,-0.0182,0.0021,-33.4053,5.9337,38.6608,23.99,0.26,0.09,8.58,0.0,0.0,0.0,0.0,0,0.0,0.0,1,/data_0006-0.
633624488,1766652735267722,0,0,-0.0017,0.0002,0.998,0.0176,-0.003,-0.0131,-35.0131,4.675,38.8342,23.99,0.26,0.09,8.58,0.0,0.0,0.0,0.0,0,0.0,0.0,1,/data_0006-0.
633628488,1766652735271722,0,0,-0.0018,-0.0,0.9984,0.0176,-0.0106,0.0021,-35.0131,4.675,38.8342,23.98,0.25,0.1,8.57,0.0,0.0,0.0,0.0,0,0.0,0.0,1,/data_0006-0.
633632488,1766652735275722,0,0,-0.0018,0.0001,0.9989,0.01,-0.003,0.0098,-35.0131,4.675,38.8342,23.98,0.23,0.1,8.56,0.0,0.0,0.0,0.0,0,0.0,0.0,1,/data_0006-0.
633684488,1766652735327722,0,0,-0.0023,-0.0003,1.0002,-0.0205,-0.0182,-0.0436,-35.0131,4.675,38.8342,23.99,0.09,0.12,8.48,0.0,0.0,0.0,0.0,0,0.0,0.0,1,/data_0006-0.
633688488,1766652735331722,0,0,-0.0026,-0.0001,1.0,-0.0205,-0.0106,-0.036,-35.0131,4.675,38.8342,23.99,0.08,0.12,8.47,0.0,0.0,0.0,0.0,0,0.0,0.0,1,/data_0006-0.
633692488,1766652735335722,0,0,-0.0024,0.0001,0.9998,-0.0129,-0.0182,-0.0436,-35.0131,4.675,38.8342,23.99,0.07,0.12,8.47,0.0,0.0,0.0,0.0,0,0.0,0.0,1,/data_0006-0.
633696488,1766652735339722,0,0,-0.0023,0.0,0.9995,-0.0205,-0.0182,-0.0208,-35.0131,4.675,38.8342,23.99,0.06,0.12,8.46,0.0,0.0,0.0,0.0,0,0.0,0.0,1,/data_0006-0.
633740241,1766652735383475,0,0,-0.0014,0.0002,0.9979,-0.0053,-0.0487,-0.0208,-35.0131,4.675,38.8342,24.0,-0.01,0.12,8.4,0.0,0.0,0.0,0.0,0,0.0,0.0,1,/data_0006-0.
633744488,1766652735387722,0,0,-0.0017,0.0002,0.9988,-0.0129,-0.0487,-0.0055,-35.0131,4.675,38.8342,24.0,-0.01,0.12,8.4,0.0,0.0,0.0,0.0,0,0.0,0.0,1,/data_0006-0.
633748236,1766652735391470,0,0,-0.0016,0.0003,0.9996,-0.0129,-0.0487,-0.0131,-35.0131,4.675,38.8342,24.0,-0.02,0.12,8.39,0.0,0.0,0.0,0.0,0,0.0,0.0,1,/data_0006-0.
633752489,1766652735395723,0,0,-0.0018,0.0002,0.9994,-0.0053,-0.064,-0.0131,-32.8694,5.3943,40.2211,24.0,-0.01,0.12,8.4,0.0,0.0,0.0,0.0,0,0.0,0.0,1,/data_0006-0.
633804236,1766652735447470,0,0,-0.0022,-0.0001,1.0008,-0.0053,-0.0564,0.0098,-32.8694,5.3943,40.2211,24.0,0.06,0.11,8.47,0.0,0.0,0.0,0.0,0,0.0,0.0,1,/data_0006-0.
633808234,1766652735451468,0,0,-0.0024,-0.0,1.0005,0.0024,-0.0564,0.0174,-32.8694,5.3943,40.2211,23.99,0.06,0.11,8.48,0.0,0.0,0.0,0.0,0,0.0,0.0,1,/data_0006-0.
633812488,1766652735455722,0,0,-0.0024,0.0002,1.0004,0.0176,-0.064,0.025,-32.8694,5.3943,40.2211,23.99,0.07,0.11,8.48,0.0,0.0,0.0,0.0,0,0.0,0.0,1,/data_0006-0.
633816488,1766652735459722,0,0,-0.0023,0.0002,0.9998,0.0024,-0.0564,0.0098,-32.8694,5.3943,40.2211,24.0,0.07,0.11,8.49,0.0,0.0,0.0,0.0,0,0.0,0.0,1,/data_0006-0.
633860488,1766652735503722,0,0,-0.0026,-0.0001,0.9988,-0.0053,-0.0335,-0.0208,-32.8694,5.3943,40.2211,23.99,0.1,0.11,8.54,0.0,0.0,0.0,0.0,0,0.0,0.0,1,/data_0006-0.
633864488,1766652735507722,0,0,-0.0026,-0.0,0.9987,0.0024,-0.0258,-0.0055,-32.8694,5.3943,40.2211,23.99,0.1,0.11,8.54,0.0,0.0,0.0,0.0,0,0.0,0.0,1,/data_0006-0.
633868488,1766652735511722,0,0,-0.0026,-0.0003,0.9992,-0.0129,-0.0182,-0.0131,-32.8694,5.3943,40.2211,23.99,0.11,0.11,8.54,0.0,0.0,0.0,0.0,0,0.0,0.0,1,/data_0006-0.
633872488,1766652735515722,0,0,-0.0026,-0.0006,0.9996,-0.0282,-0.0182,-0.0208,-32.8694,5.3943,40.2211,23.99,0.11,0.11,8.55,0.0,0.0,0.0,0.0,0,0.0,0.0,1,/data_0006-0.
633924488,1766652735567722,0,0,-0.0026,0.0003,1.0003,0.01,-0.0335,-0.0284,-33.9413,5.3943,39.1809,24.0,0.1,0.11,8.58,0.0,0.0,0.0,0.0,0,0.0,0.0,1,/data_0006-0.
633928488,1766652735571722,0,0,-0.0026,0.0,1.0001,-0.0053,-0.0106,-0.0284,-33.9413,5.3943,39.1809,24.0,0.1,0.11,8.58,0.0,0.0,0.0,0.0,0,0.0,0.0,1,/data_0006-0.
633932488,1766652735575722,0,0,-0.0024,-0.0,1.0001,-0.0053,-0.0106,-0.0208,-33.9413,5.3943,39.1809,24.0,0.1,0.11,8.58,0.0,0.0,0.0,0.0,0,0.0,0.0,1,/data_0006-0.
633936488,1766652735579722,0,0,-0.0021,-0.0001,1.0003,0.0024,-0.0106,-0.0284,-33.9413,5.3943,39.1809,24.0,0.1,0.11,8.59,0.0,0.0,0.0,0.0,0,0.0,0.0,1,/data_0006-0.
633980488,1766652735623722,0,0,-0.002,-0.0006,0.9995,0.0024,-0.003,-0.0131,-33.9413,5.3943,39.1809,24.0,0.09,0.11,8.61,0.0,0.0,0.0,0.0,0,0.0,0.0,1,/data_0006-0.
633984488,1766652735627722,0,0,-0.0022,-0.0002,0.9992,-0.0053,-0.0258,-0.0131,-33.9413,5.3943,39.1809,23.99,0.09,0.11,8.61,0.0,0.0,0.0,0.0,0,0.0,0.0,1,/data_0006-0.
633988488,1766652735631722,0,0,-0.0024,-0.0002,0.999,-0.0053,-0.0258,-0.0131,-33.9413,5.3943,39.1809,24.0,0.09,0.11,8.61,0.0,0.0,0.0,0.0,0,0.0,0.0,1,/data_0006-0.
633992488,1766652735635722,0,0,-0.0024,-0.0001,0.9993,-0.0053,-0.0335,-0.0131,-33.9413,5.3943,39.1809,24.0,0.09,0.11,8.62,0.0,0.0,0.0,0.0,0,0.0,0.0,1,/data_0006-0.
634044488,1766652735687722,0,0,-0.0021,0.0002,1.0011,0.01,-0.064,-0.0208,-32.6908,4.8549,36.5804,24.0,0.05,0.12,8.6,0.0,0.0,0.0,0.0,0,0.0,0.0,1,/data_0006-0.
634048488,1766652735691722,0,0,-0.0019,-0.0003,1.0011,0.0176,-0.0564,-0.0208,-32.6908,4.8549,36.5804,24.0,0.05,0.12,8.6,0.0,0.0,0.0,0.0,0,0.0,0.0,1,/data_0006-0.
634052488,1766652735695722,0,0,-0.0016,-0.0005,1.0006,0.0176,-0.064,-0.0131,-32.6908,4.8549,36.5804,24.0,0.04,0.12,8.6,0.0,0.0,0.0,0.0,0,0.0,0.0,1,/data_0006-0.
634056235,1766652735699469,0,0,-0.0015,-0.0002,1.0004,0.0176,-0.064,-0.0284,-32.6908,4.8549,36.5804,24.0,0.04,0.12,8.6,0.0,0.0,0.0,0.0,0,0.0,0.0,1,/data_0006-0.
634108488,1766652735751722,0,0,-0.0023,-0.0002,0.9996,-0.0358,-0.0182,-0.0055,-32.6908,4.8549,36.5804,24.0,0.01,0.12,8.59,0.0,0.0,0.0,0.0,0,0.0,0.0,1,/data_0006-0.
634112488,1766652735755722,0,0,-0.0026,-0.0003,0.9998,-0.0358,-0.0335,-0.0055,-32.6908,4.8549,36.5804,24.01,0.01,0.12,8.59,0.0,0.0,0.0,0.0,0,0.0,0.0,1,/data_0006-0.
634116488,1766652735759722,0,0,-0.0027,-0.0004,0.9998,-0.0358,-0.0182,-0.0131,-32.6908,4.8549,36.5804,24.0,0.01,0.12,8.59,0.0,0.0,0.0,0.0,0,0.0,0.0,1,/data_0006-0.
634120234,1766652735763468,0,0,-0.0024,-0.0004,0.9999,-0.0205,-0.0335,-0.0131,-32.6908,4.8549,36.5804,24.0,0.01,0.12,8.59,0.0,0.0,0.0,0.0,0,0.0,0.0,1,/data_0006-0.
634164488,1766652735807722,0,0,-0.0023,0.0001,0.9993,0.0024,-0.0258,0.0174,-33.7626,4.1356,39.3543,23.99,-0.09,0.14,8.49,0.0,0.0,0.0,0.0,0,0.0,0.0,1,/data_0006-0.
634168488,1766652735811722,0,0,-0.0023,-0.0001,0.9993,0.0024,-0.0335,0.0403,-33.7626,4.1356,39.3543,24.0,-0.09,0.14,8.48,0.0,0.0,0.0,0.0,0,0.0,0.0,1,/data_0006-0.
634172488,1766652735815722,0,0,-0.0022,-0.0001,0.9993,-0.0053,-0.0182,0.025,-33.7626,4.1356,39.3543,24.0,-0.1,0.14,8.47,0.0,0.0,0.0,0.0,0,0.0,0.0,1,/data_0006-0.
634176488,1766652735819722,0,0,-0.0024,-0.0,0.9992,-0.0129,-0.0258,0.025,-33.7626,4.1356,39.3543,24.0,-0.11,0.14,8.47,0.0,0.0,0.0,0.0,0,0.0,0.0,1,/data_0006-0.
634228488,1766652735871722,0,0,-0.0026,-0.0003,0.9986,-0.051,-0.0411,-0.0131,-33.7626,4.1356,39.3543,23.99,-0.17,0.15,8.37,0.0,0.0,0.0,0.0,0,0.0,0.0,1,/data_0006-0.
634232488,1766652735875722,0,0,-0.0023,-0.0001,0.9986,-0.051,-0.0335,-0.0131,-33.7626,4.1356,39.3543,23.98,-0.18,0.15,8.36,0.0,0.0,0.0,0.0,0,0.0,0.0,1,/data_0006-0.
634236488,1766652735879722,0,0,-0.0024,-0.0002,0.9989,-0.0587,-0.0182,-0.0208,-33.7626,4.1356,39.3543,23.98,-0.18,0.15,8.35,0.0,0.0,0.0,0.0,0,0.0,0.0,1,/data_0006-0.
634240488,1766652735883722,0,0,-0.0022,-0.0,0.9986,-0.0434,-0.0106,-0.0284,-33.7626,4.1356,39.3543,23.98,-0.18,0.15,8.34,0.0,0.0,0.0,0.0,0,0.0,0.0,1,/data_0006-0.
634285488,1766652735928722,0,0,-0.0024,-0.0002,0.9997,0.0024,-0.0335,0.0021,-33.2267,4.675,37.794,24.0,-0.16,0.15,8.32,0.0,0.0,0.0,0.0,0,0.0,0.0,1,/data_0006-0.
634289488,1766652735932722,0,0,-0.0023,-0.0,0.9998,0.0024,-0.0411,0.0021,-33.2267,4.675,37.794,23.99,-0.15,0.15,8.32,0.0,0.0,0.0,0.0,0,0.0,0.0,1,/data_0006-0.
634293488,1766652735936722,0,0,-0.0024,0.0003,0.9996,0.0024,-0.0411,-0.0055,-33.2267,4.675,37.794,23.99,-0.15,0.15,8.32,0.0,0.0,0.0,0.0,0,0.0,0.0,1,/data_0006-0.
634297488,1766652735940722,0,0,-0.0025,0.0001,0.9996,0.01,-0.0411,-0.0055,-33.2267,4.675,37.794,23.99,-0.15,0.15,8.32,0.0,0.0,0.0,0.0,0,0.0,0.0,1,/data_0006-0.
634349488,1766652735992722,0,0,-0.0024,-0.0001,0.9995,0.0176,-0.0182,-0.0131,-33.2267,4.675,37.794,24.0,-0.11,0.15,8.31,0.0,0.0,0.0,0.0,0,0.0,0.0,1,/data_0006-0.
634353235,1766652735996469,0,0,-0.0024,0.0001,0.9995,0.0176,-0.0182,0.0021,-33.2267,4.675,37.794,24.0,-0.11,0.15,8.31,0.0,0.0,0.0,0.0,0,0.0,0.0,1,/data_0006-0.
634357489,1766652736000723,0,0,-0.0027,0.0001,0.9993,0.0253,-0.0182,-0.0055,-33.2267,4.675,37.794,23.99,-0.11,0.15,8.31,0.0,0.0,0.0,0.0,0,0.0,0.0,1,/data_0006-0.
634361238,1766652736004472,0,0,-0.0027,0.0002,0.9993,0.0253,-0.0182,0.0174,-33.2267,4.675,37.794,23.99,-0.11,0.15,8.3,0.0,0.0,0.0,0.0,0,0.0,0.0,1,/data_0006-0.
634405488,1766652736048722,0,0,-0.0028,0.0008,1.0,-0.0053,-0.0182,-0.0131,-33.2267,4.675,37.794,24.0,-0.08,0.15,8.29,0.0,0.0,0.0,0.0,0,0.0,0.0,1,/data_0006-0.
634409489,1766652736052723,0,0,-0.0028,0.0007,0.9997,-0.0053,-0.0106,-0.0055,-33.2267,4.675,37.794,24.0,-0.08,0.15,8.29,0.0,0.0,0.0,0.0,0,0.0,0.0,1,/data_0006-0.
634413488,1766652736056722,0,0,-0.0029,0.0005,0.9997,-0.0053,-0.0106,-0.0055,-33.2267,4.675,37.794,24.0,-0.08,0.15,8.29,0.0,0.0,0.0,0.0,0,0.0,0.0,1,/data_0006-0.
634417488,1766652736060722,0,0,-0.0029,0.0005,0.9993,0.0024,0.0047,0.0098,-33.2267,4.675,37.794,24.0,-0.07,0.15,8.29,0.0,0.0,0.0,0.0,0,0.0,0.0,1,/data_0006-0.
634469488,1766652736112722,0,0,-0.0024,-0.0003,1.0,-0.0129,-0.0258,0.0174,-33.2267,4.675,37.794,24.0,-0.07,0.16,8.28,0.0,0.0,0.0,0.0,0,0.0,0.0,1,/data_0006-0.
634473488,1766652736116722,0,0,-0.0023,-0.0,0.9995,0.01,-0.0335,0.025,-33.2267,4.675,37.794,24.0,-0.07,0.15,8.28,0.0,0.0,0.0,0.0,0,0.0,0.0,1,/data_0006-0.
634478487,1766652736121721,0,0,-0.0023,-0.0003,0.999,0.01,-0.0258,0.0174,-33.2267,4.675,37.794,24.0,-0.07,0.15,8.27,0.0,0.0,0.0,0.0,0,0.0,0.0,1,/data_0006-0.
634482488,1766652736125722,0,0,-0.0024,-0.0004,0.9992,0.0176,-0.0335,0.0174,-33.2267,4.675,37.794,24.0,-0.07,0.15,8.27,0.0,0.0,0.0,0.0,0,0.0,0.0,1,/data_0006-0.
634534488,1766652736177722,0,0,-0.0024,0.0002,1.0009,-0.0282,-0.0411,0.0174,-34.1199,5.2145,38.6608,24.0,-0.02,0.14,8.29,0.0,0.0,0.0,0.0,0,0.0,0.0,1,/data_0006-0.
634538488,1766652736181722,0,0,-0.0026,0.0003,1.0006,-0.0129,-0.0564,0.0174,-34.1199,5.2145,38.6608,24.0,-0.02,0.14,8.3,0.0,0.0,0.0,0.0,0,0.0,0.0,1,/data_0006-0.
634543487,1766652736186721,0,0,-0.0027,0.0003,1.0006,-0.0129,-0.0564,0.0174,-34.1199,5.2145,38.6608,24.0,-0.01,0.14,8.3,0.0,0.0,0.0,0.0,0,0.0,0.0,1,/data_0006-0.
634547488,1766652736190722,0,0,-0.0029,0.0003,1.0003,-0.0053,-0.0411,0.0021,-34.1199,5.2145,38.6608,24.0,-0.01,0.14,8.3,0.0,0.0,0.0,0.0,0,0.0,0.0,1,/data_0006-0.
634587488,1766652736230722,0,0,-0.0021,0.0005,1.0,0.0024,-0.0258,-0.0208,-34.1199,5.2145,38.6608,24.0,0.02,0.14,8.33,0.0,0.0,0.0,0.0,0,0.0,0.0,1,/data_0006-0.
634591488,1766652736234722,0,0,-0.0021,0.0007,1.0001,0.0024,-0.0182,-0.0131,-34.1199,5.2145,38.6608,24.0,0.03,0.14,8.33,0.0,0.0,0.0,0.0,0,0.0,0.0,1,/data_0006-0.
634595488,1766652736238722,0,0,-0.0022,0.0009,0.9997,0.0024,-0.0258,-0.0131,-34.1199,5.2145,38.6608,24.0,0.03,0.14,8.33,0.0,0.0,0.0,0.0,0,0.0,0.0,1,/data_0006-0.
634599488,1766652736242722,0,0,-0.0022,0.0007,0.9993,-0.0053,-0.0258,-0.0208,-34.1199,5.2145,38.6608,23.99,0.03,0.13,8.33,0.0,0.0,0.0,0.0,0,0.0,0.0,1,/data_0006-0.
634655488,1766652736298722,0,0,-0.0031,0.0002,0.9997,-0.0053,-0.0411,0.0098,-33.584,5.0347,39.1809,23.99,0.04,0.14,8.35,0.0,0.0,0.0,0.0,0,0.0,0.0,1,/data_0006-0.
634659488,1766652736302722,0,0,-0.0029,0.0003,0.9994,-0.0053,-0.0258,0.0174,-33.584,5.0347,39.1809,24.0,0.04,0.14,8.36,0.0,0.0,0.0,0.0,0,0.0,0.0,1,/data_0006-0.
634663488,1766652736306722,0,0,-0.003,0.0001,0.9994,0.0024,-0.0182,0.0174,-33.584,5.0347,39.1809,24.0,0.04,0.14,8.36,0.0,0.0,0.0,0.0,0,0.0,0.0,1,/data_0006-0.
634667488,1766652736310722,0,0,-0.0026,-0.0004,0.9993,0.01,-0.0335,-0.0055,-33.584,5.0347,39.1809,24.0,0.04,0.14,8.36,0.0,0.0,0.0,0.0,0,0.0,0.0,1,/data_0006-0.
634707235,1766652736350469,0,0,-0.0029,-0.0001,1.0001,-0.0205,-0.0106,0.0403,-33.584,5.0347,39.1809,23.99,0.04,0.14,8.37,0.0,0.0,0.0,0.0,0,0.0,0.0,1,/data_0006-0.
634711234,1766652736354468,0,0,-0.0028,-0.0001,0.9998,-0.0205,-0.0106,0.0403,-33.584,5.0347,39.1809,23.99,0.04,0.14,8.37,0.0,0.0,0.0,0.0,0,0.0,0.0,1,/data_0006-0.
634715234,1766652736358468,0,0,-0.0025,-0.0002,1.0,-0.0205,-0.0106,0.0403,-33.584,5.0347,39.1809,23.99,0.04,0.14,8.37,0.0,0.0,0.0,0.0,0,0.0,0.0,1,/data_0006-0.
634719234,1766652736362468,0,0,-0.0027,-0.0001,0.9997,-0.0282,-0.0182,0.0327,-33.584,5.0347,39.1809,24.0,0.03,0.14,8.37,0.0,0.0,0.0,0.0,0,0.0,0.0,1,/data_0006-0.
634775242,1766652736418476,0,0,-0.0028,0.0007,1.0003,-0.0358,-0.0182,-0.0055,-33.584,5.0347,39.1809,24.0,0.04,0.15,8.38,0.0,0.0,0.0,0.0,0,0.0,0.0,1,/data_0006-0.
634779234,1766652736422468,0,0,-0.0031,0.0007,1.0003,-0.0282,-0.0182,0.0021,-33.584,5.0347,39.1809,24.0,0.04,0.15,8.38,0.0,0.0,0.0,0.0,0,0.0,0.0,1,/data_0006-0.
634783488,1766652736426722,0,0,-0.0029,0.0006,1.0003,-0.0282,-0.0106,-0.0284,-33.584,5.0347,39.1809,24.0,0.04,0.15,8.38,0.0,0.0,0.0,0.0,0,0.0,0.0,1,/data_0006-0.
