Time_us,AccX_g,AccY_g,AccZ_g,GyroX_dps,GyroY_dps,GyroZ_dps
294067445,0.059326,0.081787,0.952881,-1.801527,-3.610687,-1.702290
294079315,0.048828,0.077637,0.952148,-2.297710,-4.641222,-1.954198
294091188,0.059082,0.079834,0.955322,-1.992366,-3.870229,-1.832061
294103049,0.052002,0.081543,0.952881,-1.931298,-4.175572,-1.969466
294114908,0.059814,0.084229,0.947754,-2.083969,-4.190840,-1.847328
294126777,0.056396,0.075439,0.948486,-2.083969,-4.068702,-1.862595
294138641,0.048096,0.078857,0.953369,-1.961832,-4.137404,-2.083969
294150506,0.058594,0.076904,0.958252,-2.007634,-4.183206,-1.908397
294162370,0.056641,0.085693,0.951904,-1.900763,-4.480916,-1.877863
294174243,0.050293,0.076904,0.958984,-2.320611,-3.862595,-1.923664
294186107,0.064697,0.081787,0.952881,-2.083969,-4.496183,-1.702290
294197971,0.057129,0.078613,0.946533,-2.290076,-4.190840,-1.977099
294209833,0.056152,0.075928,0.949219,-1.969466,-4.000000,-1.702290
294221704,0.056396,0.084961,0.955078,-2.030534,-3.870229,-1.755725
294233576,0.055908,0.082520,0.952393,-2.229008,-4.190840,-1.595420
294245441,0.053223,0.087158,0.954346,-2.297710,-4.167939,-1.725191
294257310,0.052734,0.081299,0.959229,-2.374046,-3.816794,-1.862595
294269180,0.052979,0.087646,0.951904,-2.427481,-4.259542,-1.969466
294281045,0.055176,0.083008,0.954590,-2.748092,-4.267176,-1.709924
294292904,0.051514,0.077148,0.959229,-2.374046,-4.137404,-1.641221
294304770,0.056885,0.084473,0.964844,-2.404580,-4.030534,-1.656489
294316640,0.059570,0.072998,0.949219,-2.358779,-4.229008,-1.541985
294328508,0.055420,0.077393,0.951416,-2.519084,-4.152672,-1.709924
294340371,0.054932,0.083496,0.957275,-2.290076,-3.709924,-1.610687
294352242,0.050537,0.079346,0.955322,-2.541985,-3.984733,-1.740458
294364107,0.059082,0.076904,0.958008,-2.511450,-4.167939,-1.564885
294375968,0.055176,0.073730,0.955322,-2.206107,-3.908397,-1.748092
294387831,0.058350,0.075928,0.953125,-2.343511,-4.236641,-1.687023
294399704,0.056396,0.071533,0.956543,-2.343511,-4.244275,-1.847328
294411576,0.057861,0.072754,0.958496,-2.305344,-4.236641,-1.763359
294423445,0.048096,0.079346,0.953613,-2.083969,-4.152672,-1.954198
294435316,0.056641,0.074951,0.959473,-2.213740,-3.961832,-1.885496
294447188,0.057861,0.075928,0.950439,-2.244275,-4.083970,-1.885496
294459047,0.052246,0.079102,0.953857,-2.167939,-4.145038,-1.893130
294470907,0.061279,0.074707,0.950928,-2.000000,-4.251908,-1.885496
294482774,0.051514,0.076904,0.954590,-1.931298,-4.183206,-2.083969
294494640,0.060059,0.071777,0.962402,-2.099237,-4.068702,-2.007634
294506505,0.061523,0.073486,0.961426,-1.946565,-4.114504,-1.931298
294518374,0.059326,0.080566,0.959229,-2.030534,-4.274809,-2.038168
294530254,0.062744,0.080322,0.954346,-1.977099,-4.145038,-1.778626
294542115,0.052002,0.076904,0.955566,-1.870229,-4.236641,-1.931298
294553972,0.049561,0.089355,0.954346,-2.106870,-4.038168,-1.763359
294565837,0.064453,0.087891,0.960449,-2.083969,-4.190840,-1.763359
294577707,0.055908,0.082275,0.955322,-2.099237,-4.251908,-1.946565
294589572,0.056396,0.074219,0.948486,-2.511450,-4.213740,-1.923664
294601436,0.053223,0.078613,0.960937,-2.351145,-4.374046,-1.671756
294613307,0.054199,0.070801,0.965088,-2.496183,-4.305344,-1.938931
294625179,0.053711,0.082520,0.955078,-1.961832,-3.916031,-2.106870
294637045,0.057373,0.074707,0.946045,-2.282443,-4.305344,-1.992366
294648904,0.060059,0.077637,0.956055,-2.404580,-4.435114,-1.870229
294660769,0.055420,0.074951,0.956299,-2.274809,-4.221374,-1.847328
294672640,0.052979,0.080322,0.958008,-2.122137,-3.854962,-1.763359
294684506,0.057861,0.079102,0.950928,-2.419847,-4.290076,-1.786260
294696371,0.056641,0.072510,0.956055,-2.526718,-4.839694,-1.793893
294708254,0.056885,0.080078,0.959473,-2.274809,-3.969466,-1.778626
294720116,0.055420,0.075439,0.962158,-2.274809,-4.000000,-1.839695
294731971,0.054443,0.079590,0.956299,-2.137405,-4.656488,-2.000000
294743833,0.057861,0.079834,0.950195,-2.206107,-4.328244,-1.854962
294755705,0.057617,0.081299,0.950684,-2.335878,-4.038168,-1.969466
294767576,0.061768,0.079102,0.959229,-2.519084,-4.236641,-1.809160
294779442,0.060059,0.074707,0.954590,-2.442748,-4.419847,-1.725191
294791314,0.054687,0.081299,0.952881,-2.435115,-3.961832,-1.809160
294803188,0.052490,0.084229,0.960205,-2.419847,-4.030534,-1.854962
294815056,0.055664,0.079346,0.946777,-2.305344,-4.106870,-1.786260
294826919,0.053711,0.082031,0.946777,-2.335878,-4.473282,-1.847328
294838793,0.055908,0.074707,0.952148,-2.664122,-4.038168,-1.740458
294850656,0.051758,0.076172,0.961426,-2.557252,-4.145038,-1.541985
294862531,0.049805,0.077148,0.950928,-2.885496,-4.267176,-1.862595
294874404,0.062500,0.077148,0.958984,-2.977099,-4.404580,-1.824427
294886287,0.056885,0.069092,0.958496,-2.519084,-4.167939,-1.862595
294898167,0.064209,0.068115,0.959473,-2.244275,-4.061069,-2.007634
294910037,0.054443,0.077393,0.955811,-2.053435,-4.137404,-1.916031
294921899,0.051758,0.075928,0.956055,-1.916031,-4.297710,-1.984733
294933767,0.054443,0.084473,0.960937,-2.091603,-4.076336,-1.763359
294945635,0.056641,0.083740,0.956543,-2.305344,-4.099236,-1.954198
294957502,0.059082,0.079346,0.955322,-2.297710,-4.152672,-1.809160
294969367,0.066650,0.066895,0.951172,-2.129771,-4.328244,-1.839695
294981241,0.061279,0.070312,0.956787,-2.030534,-4.129771,-2.015267
294993106,0.057861,0.079346,0.951172,-1.916031,-4.145038,-1.977099
295004968,0.052246,0.081055,0.958496,-1.961832,-4.221374,-1.946565
295016833,0.053467,0.080322,0.952148,-2.206107,-4.175572,-1.946565
295028706,0.057129,0.074707,0.954590,-2.045802,-3.893130,-1.938931
295040576,0.046631,0.083008,0.959961,-2.106870,-3.969466,-1.801527
295052442,0.057129,0.079102,0.960205,-2.099237,-4.198473,-1.946565
295064311,0.051758,0.077393,0.957764,-1.793893,-4.251908,-2.045802
295076188,0.058594,0.070068,0.951416,-1.984733,-3.801527,-2.038168
295088048,0.054199,0.073486,0.957275,-1.870229,-4.213740,-1.984733
295099911,0.054443,0.079346,0.951416,-2.030534,-4.351145,-1.801527
295111776,0.063232,0.082275,0.945557,-1.961832,-4.496183,-2.152672
295123647,0.064453,0.077637,0.961670,-2.106870,-4.129771,-1.862595
295135510,0.060791,0.072998,0.955566,-2.030534,-3.992366,-1.770992
295147372,0.055908,0.078613,0.956787,-1.847328,-4.267176,-2.045802
295159245,0.049805,0.075439,0.962402,-1.809160,-4.328244,-1.793893
295171113,0.052979,0.070312,0.947998,-1.664122,-3.977099,-2.061069
295182975,0.050293,0.083008,0.951660,-1.946565,-4.282443,-1.885496
295194838,0.051270,0.080322,0.955811,-1.870229,-3.961832,-1.946565
295206712,0.052002,0.085693,0.956787,-2.061069,-4.167939,-1.923664
295218577,0.049805,0.073730,0.954102,-2.183206,-4.000000,-1.969466
295230442,0.053955,0.072754,0.957275,-2.007634,-4.175572,-1.877863
295242311,0.059570,0.076172,0.951416,-1.923664,-3.900763,-1.816794
295254188,0.051025,0.080078,0.963135,-2.068702,-4.488550,-1.969466
295266055,0.049316,0.075439,0.958984,-2.007634,-4.213740,-1.931298
295277913,0.053955,0.076416,0.954346,-1.916031,-4.083970,-1.992366
295289778,0.050293,0.083496,0.955322,-2.022901,-4.473282,-1.778626
295301648,0.053955,0.079102,0.956787,-2.061069,-4.290076,-1.900763
295313509,0.052490,0.079834,0.955811,-2.198473,-4.198473,-2.068702
295325372,0.059082,0.066650,0.958496,-2.091603,-4.229008,-1.969466
295337243,0.052734,0.075928,0.948486,-1.435115,-4.259542,-1.916031
295349113,0.052490,0.078125,0.943604,-1.854962,-3.984733,-2.160305
295360975,0.055908,0.081299,0.965820,-1.923664,-4.053435,-1.916031
295372837,0.054443,0.082520,0.956055,-1.770992,-4.343512,-1.938931
295384708,0.055420,0.078857,0.960449,-1.992366,-4.122138,-2.053435
295396572,0.058350,0.079346,0.958740,-1.992366,-4.251908,-1.977099
295408436,0.053467,0.080811,0.958740,-2.030534,-3.908397,-1.908397
295420307,0.052246,0.080078,0.952637,-2.374046,-4.251908,-2.045802
295432179,0.049805,0.076660,0.955811,-2.129771,-4.030534,-1.755725
295444045,0.057617,0.080811,0.954102,-2.190840,-4.236641,-1.961832
295455904,0.058105,0.081055,0.959473,-2.145038,-4.091603,-1.793893
295467769,0.054687,0.076172,0.957275,-2.328244,-4.061069,-1.862595
295479641,0.061523,0.076660,0.952148,-2.213740,-4.259542,-2.045802
295491505,0.051758,0.082031,0.962402,-2.213740,-4.312977,-1.862595
295503371,0.055908,0.082031,0.955322,-2.106870,-4.083970,-1.893130
295515242,0.057861,0.075928,0.959717,-2.213740,-4.091603,-1.908397
295527107,0.057373,0.076660,0.946289,-1.870229,-4.129771,-1.793893
295538968,0.053711,0.072998,0.953369,-2.183206,-4.167939,-1.900763
295550830,0.055420,0.076416,0.957275,-2.221374,-4.114504,-2.038168
295562704,0.055420,0.074707,0.958252,-1.877863,-4.183206,-1.969466
295574571,0.054932,0.074463,0.953857,-1.938931,-4.068702,-1.938931
295586436,0.061523,0.076904,0.953369,-1.923664,-3.923664,-1.931298
295598308,0.055420,0.082031,0.954346,-1.931298,-4.198473,-1.992366
295610179,0.046875,0.078369,0.956543,-2.053435,-4.374046,-2.000000
295622042,0.058350,0.076904,0.967041,-2.068702,-4.381680,-1.961832
295633901,0.057373,0.072754,0.955322,-2.015267,-4.000000,-1.816794
295645766,0.054443,0.073242,0.952637,-2.114504,-3.984733,-1.992366
295657636,0.055908,0.080566,0.958008,-2.183206,-4.366412,-1.893130
295669502,0.051758,0.069580,0.963379,-2.045802,-4.061069,-1.816794
295681370,0.055908,0.080078,0.956543,-2.297710,-4.427481,-1.946565
295693240,0.057373,0.084961,0.960937,-2.114504,-4.114504,-1.801527
295705107,0.051758,0.074707,0.951904,-2.167939,-4.396946,-2.038168
295716971,0.052979,0.080322,0.945068,-2.030534,-4.282443,-1.908397
295728834,0.061035,0.074219,0.950928,-2.297710,-4.007634,-1.954198
295740708,0.055908,0.076904,0.958496,-2.122137,-4.137404,-2.045802
295752576,0.058350,0.076660,0.956787,-2.175573,-4.328244,-1.893130
295764442,0.061523,0.076660,0.950928,-2.274809,-4.145038,-1.816794
295776310,0.055908,0.078125,0.957031,-2.083969,-4.114504,-1.954198
295788179,0.053223,0.071533,0.953857,-2.076336,-4.221374,-1.809160
295800042,0.056885,0.073975,0.955811,-1.832061,-4.389313,-1.969466
295811902,0.062988,0.080322,0.956055,-2.190840,-4.229008,-1.923664
295823768,0.060791,0.077881,0.957031,-2.106870,-4.152672,-1.870229
295835640,0.057617,0.074707,0.957275,-2.061069,-4.099236,-1.931298
295847505,0.057617,0.077637,0.955566,-1.938931,-4.061069,-1.916031
295859373,0.054932,0.076660,0.958008,-1.923664,-4.198473,-2.160305
295871246,0.055176,0.074219,0.956543,-1.931298,-4.145038,-2.114504
295883113,0.056396,0.075439,0.958496,-1.816794,-4.091603,-1.778626
295894972,0.055908,0.079834,0.946045,-2.183206,-4.229008,-2.045802
295906837,0.060303,0.075439,0.951172,-2.198473,-4.213740,-2.038168
295918712,0.057373,0.075439,0.953125,-2.267176,-4.091603,-1.793893
295930579,0.058105,0.078857,0.956055,-2.259542,-3.938931,-1.877863
295942444,0.061768,0.079590,0.960449,-1.877863,-4.351145,-1.977099
295954315,0.059082,0.077637,0.966797,-2.015267,-4.473282,-1.839695
295966188,0.058350,0.070557,0.953857,-2.198473,-4.305344,-1.824427
295978047,0.060303,0.076172,0.959229,-2.145038,-4.335878,-1.977099
295989907,0.055420,0.082764,0.955322,-2.213740,-4.175572,-1.900763
296001774,0.051514,0.076660,0.945068,-2.091603,-4.190840,-1.870229
296013640,0.062744,0.076172,0.960693,-2.190840,-4.198473,-1.816794
296025506,0.054199,0.082275,0.956787,-2.122137,-4.251908,-1.877863
296037372,0.048096,0.074463,0.958008,-2.061069,-4.030534,-1.679389
296049247,0.049072,0.083008,0.952637,-2.030534,-4.076336,-1.847328
296061113,0.058838,0.080811,0.952393,-1.977099,-4.458015,-1.854962
296072975,0.053711,0.074707,0.954346,-2.114504,-4.190840,-2.091603
296084836,0.052979,0.071045,0.953857,-2.236641,-3.885496,-1.832061
296096707,0.055420,0.081299,0.957275,-2.083969,-4.282443,-1.908397
296108572,0.057861,0.077393,0.958496,-1.961832,-4.053435,-1.946565
296120436,0.062012,0.075928,0.957031,-2.053435,-4.198473,-2.015267
296132308,0.056885,0.078613,0.949463,-2.229008,-3.801527,-1.908397
296144180,0.055664,0.077881,0.946777,-1.854962,-4.519084,-1.908397
296156045,0.051514,0.079346,0.957275,-2.106870,-4.167939,-2.000000
296167902,0.065186,0.085205,0.951172,-1.969466,-4.213740,-1.786260
296179768,0.055664,0.080322,0.961426,-1.893130,-4.251908,-2.030534
296191640,0.048340,0.079346,0.957520,-1.977099,-3.931298,-2.007634
296203505,0.049072,0.072021,0.959473,-2.145038,-4.580153,-1.824427
296215371,0.060303,0.070068,0.957031,-2.045802,-4.229008,-2.000000
296227240,0.058594,0.076660,0.955566,-2.045802,-4.106870,-2.000000
296239106,0.063232,0.077393,0.949219,-1.641221,-4.160306,-2.076336
296250968,0.055664,0.079346,0.958984,-2.015267,-4.328244,-1.893130
296262831,0.056885,0.077148,0.961182,-1.908397,-4.335878,-2.099237
296274703,0.047119,0.075439,0.967529,-1.969466,-3.961832,-2.007634
296286572,0.057861,0.074707,0.964111,-1.778626,-4.290076,-2.007634
296298437,0.056885,0.076416,0.954346,-1.885496,-4.152672,-2.045802
296310308,0.061523,0.078857,0.951416,-1.916031,-4.236641,-1.954198
296322179,0.050049,0.083252,0.949707,-1.832061,-4.122138,-1.984733
296334045,0.055176,0.077148,0.955566,-2.038168,-4.229008,-1.992366
296345905,0.051514,0.070801,0.952637,-1.961832,-4.366412,-2.000000
296357769,0.051025,0.074219,0.960693,-2.083969,-3.847328,-2.038168
296369641,0.056641,0.076416,0.952881,-1.954198,-4.267176,-2.129771
296381506,0.052002,0.078857,0.954346,-1.923664,-4.351145,-1.900763
296393372,0.049072,0.074219,0.954102,-1.946565,-4.015267,-2.083969
296405246,0.057617,0.079590,0.954590,-1.916031,-4.328244,-2.083969
296417107,0.055420,0.076660,0.959229,-1.862595,-4.320611,-1.839695
296428968,0.057373,0.073486,0.953125,-1.832061,-4.145038,-2.015267
296440831,0.046631,0.080078,0.950928,-1.870229,-4.236641,-1.793893
296452706,0.052002,0.079346,0.954834,-1.992366,-4.221374,-2.068702
296464572,0.051758,0.079590,0.959717,-1.893130,-4.427481,-2.068702
296476435,0.060303,0.081299,0.959717,-2.007634,-4.152672,-2.068702
296488308,0.054443,0.079346,0.954834,-1.969466,-4.190840,-1.893130
296500179,0.057129,0.082031,0.961670,-2.137405,-4.061069,-1.923664
296512045,0.058838,0.079590,0.950684,-1.984733,-4.244275,-1.900763
296523904,0.057373,0.076904,0.955566,-2.106870,-4.335878,-1.977099
296535771,0.055176,0.075684,0.945068,-2.198473,-4.183206,-2.000000
296547640,0.057129,0.071533,0.959717,-2.282443,-4.267176,-1.809160
296559508,0.058838,0.079834,0.958252,-2.152672,-4.160306,-1.923664
296571371,0.060791,0.075684,0.958496,-1.877863,-4.251908,-2.068702
296583243,0.055664,0.078857,0.952148,-1.870229,-4.282443,-1.992366
296595107,0.049805,0.075439,0.949707,-1.946565,-4.099236,-2.045802
296606968,0.052246,0.076904,0.959961,-1.870229,-4.328244,-1.908397
296618831,0.057373,0.082275,0.961182,-1.709924,-4.503817,-1.832061
296630704,0.055176,0.077393,0.948242,-1.801527,-3.839695,-2.145038
296642572,0.058838,0.083252,0.952637,-1.748092,-4.274809,-2.007634
296654437,0.050537,0.077637,0.955322,-1.778626,-4.648855,-1.923664
296666307,0.057373,0.074707,0.957031,-1.793893,-4.198473,-2.091603
296678179,0.056396,0.083496,0.955322,-1.923664,-4.175572,-2.068702
296690045,0.057129,0.074707,0.954346,-1.725191,-3.984733,-1.946565
296701904,0.056396,0.076172,0.946533,-2.122137,-4.458015,-1.832061
296713769,0.055908,0.081299,0.948975,-1.946565,-4.267176,-2.152672
296725640,0.048828,0.078369,0.954590,-1.832061,-4.213740,-2.000000
296737504,0.050293,0.085937,0.944824,-2.022901,-4.442748,-1.946565
296749370,0.056641,0.079346,0.958008,-2.213740,-4.061069,-2.076336
296761239,0.052490,0.080078,0.941650,-1.694656,-4.053435,-1.923664
296773107,0.057861,0.081543,0.955078,-2.099237,-4.290076,-2.175573
296784968,0.057129,0.080078,0.952148,-2.198473,-4.274809,-1.969466
296796831,0.062012,0.075928,0.955566,-1.984733,-4.091603,-2.122137
296808704,0.051270,0.077637,0.955078,-1.977099,-4.083970,-2.022901
296820572,0.055908,0.074219,0.954590,-2.045802,-4.198473,-1.916031
296832436,0.056396,0.078369,0.957520,-1.755725,-4.251908,-1.908397
296844308,0.057617,0.083984,0.954346,-1.954198,-4.068702,-2.000000
296856179,0.054199,0.081543,0.951660,-1.885496,-4.412214,-2.015267
296868042,0.065674,0.078857,0.961426,-1.847328,-4.259542,-1.977099
296879902,0.046387,0.081543,0.946777,-1.557252,-4.366412,-2.137405
296891768,0.062988,0.084961,0.947021,-1.931298,-4.526718,-1.900763
296903640,0.058350,0.081055,0.952148,-1.816794,-4.496183,-1.992366
296915505,0.054687,0.087402,0.960449,-2.167939,-3.824427,-2.083969
296927371,0.051758,0.079346,0.953369,-2.053435,-4.503817,-1.900763
296939243,0.057617,0.077148,0.956787,-2.145038,-4.511450,-1.900763
296951107,0.061523,0.080322,0.950684,-2.267176,-4.083970,-1.977099
296962968,0.053955,0.074707,0.959717,-2.007634,-3.908397,-1.916031
296974831,0.051758,0.079346,0.957764,-1.900763,-4.282443,-1.854962
296986705,0.058594,0.075684,0.943848,-2.076336,-4.465649,-1.870229
296998572,0.054932,0.074951,0.959229,-1.931298,-3.969466,-1.809160
297010436,0.053223,0.081787,0.952148,-2.007634,-3.954198,-1.816794
297022308,0.057861,0.080811,0.959717,-2.114504,-4.496183,-1.893130
297034179,0.061035,0.084717,0.953857,-2.099237,-3.977099,-1.923664
297046045,0.057129,0.077637,0.948242,-2.068702,-3.862595,-1.893130
297057904,0.054932,0.080078,0.959229,-2.022901,-4.351145,-2.000000
297069767,0.063965,0.079590,0.954346,-2.129771,-4.358778,-1.740458
297081640,0.051514,0.078125,0.959961,-2.038168,-3.755725,-1.809160
297093505,0.053467,0.078125,0.967041,-2.007634,-4.099236,-2.106870
297105370,0.052490,0.076172,0.958008,-2.015267,-4.465649,-2.068702
297117239,0.057373,0.079102,0.949951,-2.122137,-4.083970,-2.030534
297129107,0.058594,0.074951,0.957764,-2.053435,-3.923664,-1.946565
297140968,0.052979,0.075195,0.956055,-1.923664,-4.282443,-2.015267
297152831,0.049561,0.078369,0.957520,-1.832061,-4.526718,-1.900763
297164704,0.050293,0.079346,0.949219,-1.893130,-3.923664,-1.931298
297176571,0.057861,0.073242,0.959961,-1.931298,-4.114504,-1.938931
297188436,0.053467,0.076416,0.952637,-1.877863,-4.374046,-2.083969
297200311,0.052002,0.082031,0.952637,-1.862595,-4.328244,-1.984733
297212187,0.052979,0.083252,0.958008,-2.022901,-3.961832,-2.015267
297224046,0.050781,0.084473,0.953613,-1.816794,-4.152672,-1.938931
297235905,0.054443,0.082275,0.945068,-2.450382,-4.274809,-2.000000
297247769,0.061035,0.077637,0.962402,-2.129771,-4.083970,-1.923664
297259640,0.054199,0.081543,0.952393,-1.770992,-4.091603,-1.946565
297271506,0.052979,0.078369,0.951172,-2.061069,-4.213740,-2.061069
297283371,0.056885,0.072998,0.960937,-2.076336,-4.343512,-1.923664
297295242,0.054932,0.074219,0.963135,-2.053435,-3.992366,-1.877863
297307107,0.051270,0.079346,0.951416,-2.091603,-3.961832,-2.068702
297318967,0.054199,0.075439,0.947998,-1.908397,-4.442748,-2.030534
297330831,0.053223,0.077393,0.955078,-2.282443,-4.274809,-1.877863
297342704,0.057129,0.083984,0.958496,-2.251908,-3.969466,-1.801527
297354576,0.057373,0.074707,0.960449,-2.145038,-4.396946,-1.854962
297366442,0.057861,0.084473,0.948975,-2.106870,-4.190840,-1.763359
297378311,0.056641,0.080322,0.952148,-2.038168,-4.000000,-1.916031
297390186,0.051514,0.079834,0.952637,-2.015267,-4.190840,-1.717557
297402048,0.058105,0.083496,0.965820,-2.022901,-4.320611,-1.862595
297413908,0.053223,0.077881,0.955078,-2.229008,-4.236641,-1.816794
297425775,0.055664,0.077148,0.947266,-2.091603,-4.106870,-1.969466
297437647,0.056641,0.078857,0.953613,-2.167939,-4.305344,-2.061069
297449511,0.059814,0.074951,0.950195,-2.122137,-4.022901,-1.778626
297461374,0.059326,0.072754,0.950439,-1.992366,-4.183206,-1.931298
297473254,0.057129,0.080322,0.953857,-2.175573,-4.083970,-1.877863
297485116,0.054687,0.080566,0.947266,-2.137405,-4.290076,-1.984733
297496972,0.061523,0.078369,0.961914,-2.076336,-4.404580,-2.045802
297508836,0.060791,0.079102,0.948486,-2.091603,-4.183206,-2.076336
297520708,0.058594,0.080811,0.962402,-1.839695,-3.984733,-1.885496
297532576,0.053955,0.079346,0.963379,-2.099237,-4.366412,-1.870229
297544444,0.059082,0.078613,0.956055,-2.183206,-3.908397,-1.824427
297556315,0.062012,0.077148,0.951172,-2.091603,-4.198473,-2.030534
297568188,0.057129,0.071045,0.943848,-2.076336,-4.274809,-1.992366
297580047,0.058594,0.082031,0.958984,-2.129771,-4.167939,-1.984733
297591909,0.052490,0.080811,0.958252,-2.122137,-4.267176,-2.015267
297603776,0.051025,0.078857,0.952637,-1.793893,-4.412214,-2.167939
297615647,0.063965,0.073730,0.954834,-2.152672,-4.328244,-1.793893
297627510,0.058594,0.090820,0.951416,-1.732824,-3.984733,-2.099237
297639375,0.067627,0.080322,0.947266,-2.106870,-4.526718,-1.908397
297651247,0.055664,0.076172,0.973877,-2.374046,-4.305344,-1.786260
297663116,0.060791,0.072754,0.949951,-1.755725,-3.793893,-1.725191
297674976,0.052734,0.077637,0.948975,-1.992366,-4.160306,-1.725191
297686838,0.052490,0.075928,0.948975,-2.213740,-4.183206,-1.916031
297698714,0.053711,0.079346,0.958740,-1.786260,-4.183206,-1.786260
297710576,0.051270,0.083984,0.950195,-1.908397,-3.870229,-1.961832
297722442,0.049316,0.070312,0.951904,-2.160305,-4.053435,-1.755725
297734311,0.056641,0.075928,0.959229,-1.916031,-4.351145,-1.923664
297746188,0.062256,0.081787,0.950684,-2.343511,-4.183206,-1.854962
297758048,0.052002,0.074463,0.948975,-1.832061,-4.328244,-1.938931
297769908,0.057129,0.076172,0.947510,-2.068702,-4.351145,-1.923664
297781774,0.059326,0.074707,0.964355,-2.076336,-4.534351,-2.129771
297793640,0.061035,0.079590,0.956299,-1.854962,-4.389313,-2.091603
297805505,0.064697,0.083740,0.943848,-1.908397,-3.946565,-1.900763
297817372,0.055176,0.086182,0.956787,-2.450382,-4.083970,-1.969466
297829246,0.057373,0.071533,0.958252,-2.083969,-4.267176,-1.770992
297841113,0.052002,0.084961,0.957275,-1.793893,-4.137404,-2.007634
297852971,0.063721,0.083496,0.946045,-2.000000,-4.496183,-1.893130
297864832,0.053711,0.076904,0.961670,-2.381679,-4.045802,-1.847328
297876706,0.061523,0.079346,0.961426,-1.290076,-3.778626,-1.847328
297888572,0.054199,0.076172,0.947021,-2.267176,-3.625954,-2.198473
297900436,0.049805,0.078369,0.963135,-2.152672,-4.236641,-1.969466
297912307,0.069580,0.083984,0.955078,-2.015267,-4.251908,-1.870229
297924179,0.059570,0.084961,0.961182,-1.839695,-3.809160,-1.816794
297936045,0.051025,0.081055,0.953369,-2.259542,-3.824427,-1.816794
297947904,0.048340,0.072998,0.947754,-2.022901,-4.229008,-2.106870
297959769,0.064209,0.087646,0.957764,-2.251908,-4.748092,-1.938931
297971641,0.056885,0.078125,0.947754,-2.213740,-3.725191,-1.717557
297983505,0.053711,0.075684,0.962646,-2.381679,-3.755725,-1.793893
297995372,0.057129,0.072266,0.961182,-2.152672,-4.061069,-1.801527
298007246,0.060791,0.079834,0.946045,-2.022901,-4.458015,-1.908397
298019113,0.056641,0.085693,0.956299,-2.236641,-3.877863,-1.946565
298030973,0.052979,0.078613,0.969971,-2.251908,-4.366412,-1.969466
298042837,0.055908,0.080811,0.950928,-1.824427,-4.389313,-1.931298
298054713,0.054932,0.080811,0.958740,-2.061069,-3.694656,-1.793893
298066576,0.058105,0.075684,0.950928,-2.145038,-4.236641,-1.816794
298078442,0.057373,0.080811,0.949463,-1.931298,-4.396946,-1.984733
298090311,0.062988,0.079102,0.952637,-2.106870,-4.152672,-1.824427
298102188,0.054443,0.075439,0.949707,-1.984733,-3.748092,-1.885496
298114048,0.055908,0.077881,0.957520,-1.969466,-4.274809,-1.961832
298125907,0.068359,0.079834,0.948730,-2.129771,-4.114504,-1.954198
298137773,0.061279,0.079590,0.952148,-1.931298,-4.221374,-2.068702
298149641,0.059570,0.075195,0.957764,-2.083969,-3.977099,-1.977099
298161508,0.053711,0.078613,0.962891,-2.114504,-4.503817,-1.832061
298173372,0.058594,0.084229,0.957031,-2.030534,-4.129771,-2.000000
298185241,0.053711,0.081055,0.949951,-2.007634,-3.832061,-1.923664
298197106,0.051514,0.081787,0.949463,-2.259542,-4.290076,-1.770992
298208968,0.059570,0.079102,0.956787,-2.000000,-4.282443,-2.083969
298220831,0.055664,0.078613,0.956543,-1.977099,-4.175572,-1.977099
298232703,0.059326,0.080078,0.952393,-2.053435,-3.893130,-1.954198
298244572,0.058350,0.079834,0.951904,-1.862595,-4.465649,-1.923664
298256436,0.062256,0.080811,0.957031,-2.328244,-4.091603,-2.091603
298268307,0.057129,0.077881,0.959961,-1.908397,-3.900763,-2.000000
298280179,0.053711,0.073975,0.951416,-2.045802,-4.335878,-1.984733
298292042,0.060303,0.077393,0.955811,-1.671756,-4.328244,-1.893130
298303902,0.054199,0.081055,0.962402,-2.129771,-4.328244,-1.885496
298315769,0.058105,0.082031,0.958740,-2.015267,-4.038168,-2.022901
298327640,0.053223,0.080566,0.951416,-1.992366,-4.351145,-2.038168
298339507,0.060059,0.078613,0.958008,-2.114504,-3.992366,-1.839695
298351372,0.062988,0.080078,0.965332,-2.083969,-3.732824,-1.961832
298363254,0.054932,0.081787,0.956543,-2.206107,-4.274809,-1.984733
298375115,0.054687,0.084229,0.960937,-2.076336,-4.030534,-1.671756
298386972,0.050293,0.077637,0.944336,-1.824427,-4.007634,-1.908397
298398837,0.058838,0.072266,0.961182,-2.358779,-4.251908,-1.748092
298410708,0.055176,0.076904,0.950928,-2.083969,-3.847328,-1.793893
298422572,0.057373,0.084961,0.955322,-1.832061,-3.885496,-1.931298
298434435,0.051025,0.079590,0.950928,-2.916031,-4.129771,-1.885496
298446308,0.067139,0.082031,0.965820,-2.091603,-4.526718,-1.641221
298458179,0.055420,0.083740,0.942627,-2.427481,-3.694656,-1.709924
298470042,0.053223,0.071289,0.947754,-2.305344,-3.816794,-1.732824
298481904,0.057861,0.083252,0.971436,-2.328244,-4.694656,-1.709924
298493770,0.066406,0.078857,0.958008,-2.503817,-4.435114,-1.969466
298505641,0.052490,0.079346,0.962158,-2.206107,-3.916031,-1.885496
298517506,0.050049,0.078125,0.961914,-2.167939,-3.595420,-1.839695
298529371,0.053223,0.081299,0.959473,-2.328244,-4.595420,-1.801527
298541242,0.057861,0.073975,0.947754,-2.381679,-3.900763,-1.801527
298553107,0.058105,0.079834,0.956787,-2.435115,-3.694656,-1.702290
298564970,0.052246,0.076172,0.965576,-2.305344,-4.312977,-1.709924
298576834,0.057373,0.070068,0.958496,-2.312977,-4.183206,-1.992366
298588707,0.056396,0.073730,0.952637,-1.938931,-3.847328,-1.832061
298600576,0.051270,0.070801,0.963379,-2.076336,-3.885496,-1.816794
298612442,0.053711,0.079590,0.962646,-2.038168,-4.534351,-1.984733
298624312,0.058105,0.081787,0.959961,-1.992366,-4.152672,-1.984733
298636188,0.056396,0.076660,0.953369,-2.122137,-3.709924,-1.946565
298648047,0.057617,0.079346,0.948242,-2.221374,-4.282443,-1.786260
298659908,0.056396,0.080322,0.952881,-2.122137,-4.534351,-1.839695
298671778,0.063721,0.083008,0.960449,-2.251908,-4.091603,-1.908397
298683650,0.049561,0.073486,0.953125,-2.061069,-4.045802,-1.877863
298695517,0.058838,0.078857,0.964111,-2.007634,-4.297710,-1.954198
298707390,0.062256,0.067871,0.959473,-2.045802,-4.259542,-1.916031
298719263,0.056152,0.081055,0.963623,-2.015267,-4.312977,-2.068702
298731134,0.047363,0.081055,0.958252,-1.778626,-4.198473,-1.916031
298743008,0.054443,0.078613,0.947998,-2.038168,-4.473282,-2.038168
298754883,0.058838,0.080811,0.953613,-1.992366,-4.000000,-1.908397
298766761,0.054443,0.076660,0.959961,-2.183206,-4.175572,-1.946565
298778632,0.055420,0.085205,0.958496,-2.175573,-4.351145,-2.007634
298790502,0.058350,0.077148,0.952393,-2.167939,-4.458015,-1.954198
298802367,0.070068,0.077881,0.960937,-2.145038,-4.045802,-1.977099
298814240,0.057617,0.072998,0.954102,-2.129771,-4.175572,-1.885496
298826106,0.055664,0.083984,0.955811,-2.114504,-4.106870,-1.839695
298837968,0.059326,0.079346,0.958252,-2.213740,-4.076336,-1.832061
298849831,0.048584,0.078369,0.949219,-1.984733,-4.213740,-2.000000
298861703,0.058838,0.075684,0.958496,-2.068702,-4.206107,-1.984733
298873576,0.053711,0.077148,0.957275,-2.122137,-4.366412,-2.000000
298885445,0.058350,0.075928,0.964355,-1.969466,-4.267176,-1.763359
298897315,0.062988,0.072754,0.956543,-1.832061,-4.328244,-1.984733
298909188,0.057373,0.072998,0.960693,-1.923664,-4.374046,-1.969466
298921055,0.061523,0.075195,0.956299,-1.786260,-4.274809,-2.229008
298932912,0.055176,0.079834,0.957275,-1.717557,-4.488550,-2.022901
298944777,0.057373,0.078857,0.952881,-1.633588,-4.312977,-2.022901
298956647,0.052002,0.080322,0.956055,-1.419847,-4.442748,-2.061069
298968509,0.059082,0.083984,0.956543,-1.854962,-4.702290,-1.954198
298980372,0.059570,0.077881,0.961670,-1.954198,-4.236641,-1.984733
298992246,0.053467,0.080078,0.944824,-1.862595,-3.877863,-1.984733
299004113,0.055908,0.077393,0.949463,-1.984733,-4.198473,-1.954198
299015973,0.053467,0.083008,0.958496,-2.305344,-4.870229,-1.931298
299027836,0.062256,0.075195,0.959229,-1.931298,-4.412214,-1.992366
299039714,0.063477,0.081299,0.957031,-1.946565,-4.091603,-2.000000
299051579,0.055664,0.075684,0.959229,-2.274809,-4.083970,-1.839695
299063446,0.061279,0.075195,0.955078,-1.740458,-4.458015,-1.954198
299075317,0.060303,0.085205,0.945557,-1.709924,-4.496183,-1.862595
299087188,0.050537,0.081543,0.956787,-2.351145,-4.022901,-1.740458
299099056,0.058838,0.077637,0.962402,-1.908397,-3.847328,-1.725191
299110919,0.051025,0.079834,0.942139,-1.816794,-3.900763,-1.877863
299122795,0.049561,0.073730,0.948975,-2.427481,-3.885496,-1.809160
299134660,0.060791,0.079346,0.957275,-1.992366,-4.641222,-2.099237
299146537,0.056152,0.076660,0.949219,-2.244275,-3.900763,-1.870229
299158415,0.052734,0.078857,0.953369,-2.557252,-3.763359,-1.648855
299170296,0.055176,0.083252,0.962891,-2.305344,-3.916031,-1.801527
299182171,0.056885,0.072754,0.963867,-2.274809,-4.106870,-1.732824
299194042,0.059570,0.078857,0.955078,-1.900763,-4.496183,-1.877863
299205902,0.055176,0.081543,0.952393,-2.099237,-4.061069,-1.969466
299217768,0.049072,0.081543,0.963623,-2.244275,-4.099236,-1.793893
299229640,0.054932,0.077881,0.953613,-2.137405,-4.030534,-1.847328
299241507,0.065918,0.077881,0.954102,-2.274809,-4.053435,-1.961832
299253371,0.054932,0.076904,0.947754,-2.312977,-3.954198,-1.938931
299265247,0.056641,0.077148,0.954590,-1.969466,-4.366412,-1.961832
299277113,0.056396,0.077881,0.955566,-2.351145,-4.511450,-1.992366
299288972,0.057861,0.075439,0.956299,-1.977099,-3.961832,-1.900763
299300837,0.054443,0.072754,0.950928,-2.045802,-4.007634,-1.938931
299312708,0.057373,0.080811,0.960937,-2.114504,-4.343512,-1.938931
299324572,0.049072,0.078857,0.949219,-1.923664,-4.267176,-1.969466
299336436,0.057373,0.077393,0.960937,-1.977099,-4.343512,-1.931298
299348307,0.055908,0.080566,0.959229,-1.969466,-4.206107,-1.916031
299360179,0.063232,0.076172,0.951416,-1.793893,-4.305344,-2.022901
299372045,0.053711,0.076660,0.953369,-2.038168,-4.099236,-2.022901
299383905,0.050537,0.066162,0.946289,-1.587786,-4.099236,-2.022901
299395770,0.052979,0.083984,0.955078,-1.572519,-4.885496,-1.969466
299407641,0.059082,0.077637,0.954834,-1.969466,-4.618320,-1.839695
299419508,0.062500,0.082520,0.968262,-2.160305,-4.152672,-2.038168
299431371,0.050049,0.084961,0.963623,-2.175573,-3.748092,-1.885496
299443246,0.054199,0.074707,0.950928,-2.305344,-4.427481,-2.000000
299455107,0.056152,0.073242,0.954346,-2.152672,-4.572519,-1.977099
299466970,0.060791,0.080566,0.950928,-1.862595,-4.229008,-2.030534
299478833,0.056152,0.070557,0.954834,-2.442748,-3.961832,-1.778626
299490706,0.054932,0.074463,0.974854,-1.770992,-3.725191,-1.854962
299502576,0.047852,0.077148,0.949707,-1.862595,-4.122138,-1.862595
299514446,0.055664,0.083740,0.940186,-2.190840,-4.137404,-2.038168
299526323,0.052002,0.081055,0.966553,-2.503817,-4.473282,-1.839695
299538193,0.051025,0.080566,0.965820,-1.977099,-3.969466,-1.984733
299550061,0.058105,0.074219,0.948486,-2.511450,-3.862595,-1.832061
299561932,0.049805,0.067871,0.944824,-2.274809,-4.213740,-1.832061
299573812,0.051514,0.076660,0.951904,-2.030534,-4.274809,-1.961832
299585691,0.061523,0.081787,0.951172,-2.282443,-4.374046,-1.816794
299597564,0.057861,0.078857,0.965576,-2.259542,-4.022901,-1.801527
299609434,0.050781,0.078613,0.955322,-2.274809,-3.931298,-1.763359
299621308,0.056396,0.075439,0.949951,-2.167939,-4.106870,-1.801527
299633180,0.059814,0.075928,0.959473,-2.206107,-4.022901,-1.870229
299645042,0.056641,0.077393,0.947998,-2.206107,-4.206107,-1.824427
299656903,0.055908,0.078857,0.955566,-2.022901,-4.000000,-1.801527
299668766,0.053955,0.075684,0.962402,-2.267176,-4.129771,-1.755725
299680636,0.052490,0.082275,0.964844,-2.015267,-4.137404,-1.839695
299692502,0.049805,0.082520,0.949707,-2.160305,-4.022901,-2.000000
299704367,0.060791,0.082764,0.949707,-2.061069,-4.396946,-1.931298
299716239,0.052979,0.070068,0.949951,-2.061069,-4.122138,-2.015267
299728106,0.061523,0.069092,0.950439,-1.816794,-4.129771,-1.847328
299739968,0.041504,0.072754,0.955078,-1.000000,-4.664122,-2.091603
299751831,0.064941,0.084717,0.953369,-1.916031,-4.900764,-2.022901
299763704,0.063232,0.084229,0.957031,-2.236641,-3.938931,-1.893130
299775576,0.056641,0.083252,0.962891,-2.083969,-3.213740,-1.954198
299787444,0.049072,0.069824,0.945312,-2.190840,-4.122138,-1.801527
299799315,0.061523,0.081299,0.946533,-1.755725,-5.030534,-1.969466
299811188,0.073730,0.082031,0.961914,-2.496183,-4.297710,-1.847328
299823055,0.065186,0.076660,0.983643,-2.213740,-3.290076,-1.809160
299834912,0.054932,0.076660,0.950684,-1.854962,-3.618321,-1.763359
299846777,0.047607,0.076660,0.945557,-2.091603,-4.412214,-1.786260
299858647,0.058350,0.077393,0.950439,-2.396947,-4.190840,-1.984733
299870511,0.062744,0.079346,0.957764,-1.824427,-4.129771,-1.969466
299882380,0.050781,0.079346,0.956055,-1.938931,-4.160306,-1.847328
299894248,0.052246,0.074463,0.960693,-2.213740,-3.671756,-1.938931
299906113,0.050293,0.075439,0.957520,-1.916031,-4.099236,-1.908397
299917971,0.056152,0.081543,0.948242,-1.992366,-4.526718,-1.801527
299929834,0.059082,0.085937,0.947998,-2.236641,-4.396946,-1.969466
299941706,0.057617,0.082520,0.961914,-2.396947,-3.946565,-1.923664
299953572,0.053711,0.083496,0.960937,-2.206107,-4.061069,-1.816794
299965436,0.058105,0.076904,0.955811,-2.061069,-4.229008,-1.778626
299977309,0.061279,0.070068,0.953125,-2.145038,-4.015267,-1.992366
299989179,0.056641,0.077393,0.959717,-2.106870,-4.007634,-2.083969
300001042,0.055908,0.074463,0.955078,-2.221374,-4.282443,-1.977099
300012902,0.050049,0.084961,0.956787,-1.816794,-4.114504,-1.969466
300024767,0.063721,0.077881,0.955566,-2.045802,-4.297710,-2.000000
300036641,0.052002,0.074463,0.949707,-2.106870,-4.274809,-1.977099
300048505,0.056396,0.079590,0.955078,-2.236641,-4.152672,-1.961832
300060371,0.054443,0.072754,0.959473,-1.954198,-4.160306,-1.916031
300072246,0.053711,0.053711,0.950684,-1.656489,-4.213740,-2.137405
300084107,0.049805,0.091797,0.947510,-1.190840,-4.961832,-2.236641
300095968,0.065918,0.078857,0.964355,-3.007634,-4.534351,-1.938931
300107831,0.054443,0.076660,0.965820,-0.740458,-3.839695,-2.145038
300119704,0.042236,0.082275,0.939697,-2.290076,-3.839695,-2.000000
300131572,0.063965,0.083984,0.952148,-2.152672,-5.015267,-1.770992
300143436,0.062256,0.076416,0.969238,-2.251908,-4.725191,-1.854962
300155307,0.059814,0.072754,0.947266,-1.931298,-3.022901,-1.916031
300167179,0.052246,0.082764,0.954834,-2.145038,-4.137404,-2.061069
300179045,0.060059,0.077881,0.948975,-1.862595,-4.702290,-1.961832
300190904,0.058838,0.079346,0.956787,-1.946565,-4.175572,-1.877863
300202768,0.051514,0.091309,0.950684,-2.000000,-3.496183,-1.778626
300214640,0.047363,0.074707,0.952637,-2.183206,-4.496183,-1.969466
300226506,0.051270,0.079834,0.959961,-2.343511,-4.450382,-1.862595
300238372,0.056152,0.077393,0.963135,-2.213740,-3.312977,-1.671756
300250254,0.049072,0.077148,0.954102,-1.938931,-4.068702,-1.900763
300262116,0.052490,0.072754,0.946045,-2.412214,-4.534351,-1.580153
300273972,0.061768,0.077393,0.955566,-1.847328,-4.106870,-2.045802
300285837,0.053955,0.077637,0.957275,-2.198473,-3.740458,-1.870229
300297708,0.051758,0.078857,0.949463,-2.290076,-4.000000,-1.816794
300309572,0.051514,0.078857,0.953369,-2.221374,-4.259542,-1.847328
300321436,0.057129,0.079102,0.951416,-2.534351,-3.603053,-1.954198
300333307,0.052002,0.074219,0.966553,-2.190840,-4.160306,-1.832061
300345180,0.056152,0.079102,0.956299,-2.358779,-4.427481,-1.847328
300357045,0.062500,0.069092,0.948975,-2.160305,-4.091603,-1.946565
300368904,0.052734,0.076172,0.961670,-2.152672,-4.145038,-1.946565
300380768,0.053711,0.077393,0.959229,-1.977099,-4.320611,-1.908397
300392641,0.065674,0.074707,0.955322,-1.854962,-4.480916,-1.931298
300404506,0.055420,0.081299,0.961426,-2.053435,-4.282443,-1.839695
300416374,0.055908,0.071045,0.949463,-1.763359,-3.877863,-1.885496
300428254,0.055420,0.073975,0.960693,-1.732824,-4.541985,-2.091603
300440116,0.045410,0.064209,0.949951,-1.526718,-4.396946,-2.183206
300451973,0.061523,0.089844,0.948486,-0.793893,-5.137404,-2.145038
300463836,0.069824,0.088379,0.968994,-3.511450,-4.374046,-1.916031
300475708,0.058105,0.065674,0.970459,-1.145038,-3.396947,-1.786260
300487576,0.049561,0.090820,0.930664,-1.885496,-3.778626,-1.900763
300499443,0.064941,0.081299,0.936035,-2.381679,-5.213740,-1.954198
300511311,0.070801,0.079834,0.963867,-2.366412,-5.320611,-1.923664
300523188,0.068604,0.076416,0.969971,-2.236641,-3.030534,-1.748092
300535047,0.047119,0.074463,0.947998,-2.503817,-3.496183,-1.755725
300546909,0.044678,0.080322,0.946777,-2.099237,-4.343512,-1.954198
300558777,0.052979,0.083984,0.943848,-2.450382,-4.702290,-1.885496
300570647,0.062500,0.072754,0.959473,-2.274809,-4.038168,-1.786260
300582508,0.052246,0.070312,0.957031,-2.129771,-4.259542,-2.076336
300594371,0.056641,0.073242,0.950439,-1.992366,-4.297710,-2.015267
300606243,0.058105,0.080811,0.946777,-2.282443,-3.992366,-1.847328
300618107,0.055664,0.075439,0.948975,-2.000000,-4.206107,-2.022901
300629968,0.052490,0.080811,0.955566,-1.961832,-4.229008,-1.854962
300641831,0.054199,0.081299,0.950195,-2.526718,-4.251908,-1.625954
300653704,0.055176,0.083496,0.955566,-2.473282,-3.946565,-1.916031
300665572,0.052002,0.078125,0.959961,-2.480916,-3.755725,-1.732824
300677436,0.053711,0.076172,0.948975,-2.167939,-4.099236,-2.000000
300689309,0.056641,0.072021,0.960205,-1.977099,-4.366412,-1.755725
300701178,0.057861,0.073730,0.951660,-2.167939,-4.122138,-1.786260
300713045,0.056152,0.074219,0.953613,-2.221374,-4.305344,-2.114504
300724904,0.052734,0.079590,0.947998,-2.000000,-4.305344,-2.122137
300736767,0.055908,0.071289,0.950439,-1.961832,-4.099236,-1.931298
300748640,0.045654,0.074951,0.954590,-1.900763,-4.267176,-1.946565
300760505,0.047607,0.077148,0.949219,-1.839695,-4.419847,-2.038168
300772371,0.048340,0.085449,0.957764,-1.015267,-4.877862,-2.389313
300784242,0.067871,0.085449,0.973877,-2.335878,-4.862596,-2.099237
300796113,0.062744,0.080078,0.966309,-1.977099,-3.847328,-1.984733
300807972,0.059082,0.078125,0.959717,-1.305344,-3.625954,-1.954198
300819837,0.055908,0.078613,0.927979,-2.251908,-4.427481,-1.992366
300831713,0.051758,0.080566,0.972900,-2.862595,-4.893130,-1.816794
300843579,0.066650,0.068848,0.957275,-1.969466,-4.175572,-2.083969
300855445,0.060791,0.081299,0.955322,-1.671756,-3.870229,-1.916031
300867323,0.049805,0.074219,0.962646,-2.908397,-4.259542,-1.862595
300879194,0.063477,0.077637,0.969971,-1.480916,-4.412214,-1.977099
300891061,0.055908,0.077148,0.946533,-1.633588,-4.068702,-2.221374
300902932,0.054199,0.078613,0.943604,-2.244275,-4.267176,-1.885496
300914812,0.063965,0.079834,0.963623,-2.572519,-4.259542,-1.870229
300926691,0.062988,0.076416,0.955322,-1.954198,-3.816794,-1.862595
300938565,0.058594,0.082520,0.941406,-2.236641,-3.312977,-1.687023
300950433,0.052734,0.068848,0.953125,-2.251908,-3.763359,-1.893130
300962308,0.058838,0.074219,0.950195,-1.786260,-4.969466,-2.038168
300974179,0.063232,0.085449,0.958008,-1.854962,-4.351145,-1.824427
300986045,0.046631,0.081299,0.972656,-2.427481,-3.305344,-1.786260
300997904,0.051270,0.079834,0.955566,-1.885496,-3.877863,-1.816794
301009770,0.046631,0.079102,0.941162,-2.320611,-4.259542,-1.854962
301021641,0.059570,0.072754,0.937744,-2.366412,-4.045802,-1.664122
301033506,0.057861,0.074219,0.956543,-2.000000,-4.068702,-1.877863
301045371,0.053467,0.071777,0.954346,-2.152672,-4.603054,-1.931298
301057243,0.063477,0.069580,0.954834,-2.114504,-4.282443,-1.832061
301069107,0.048340,0.070068,0.959961,-1.854962,-3.511450,-2.015267
301080968,0.056641,0.078857,0.955811,-1.885496,-4.229008,-1.946565
301092831,0.054443,0.081787,0.954346,-2.076336,-4.633588,-1.809160
301104703,0.056396,0.074951,0.959717,-2.091603,-3.740458,-1.893130
301116572,0.054443,0.077637,0.956787,-2.129771,-3.954198,-1.793893
301128436,0.048584,0.077881,0.961182,-2.076336,-4.351145,-1.931298
301140307,0.054687,0.076172,0.946289,-1.770992,-4.419847,-1.885496
301152180,0.057129,0.083496,0.951660,-1.931298,-4.221374,-1.862595
301164045,0.057861,0.077148,0.958008,-1.694656,-4.282443,-2.061069
301175903,0.059570,0.079346,0.954346,-1.740458,-4.572519,-1.977099
301187767,0.047607,0.077148,0.946045,-1.572519,-4.396946,-2.190840
301199640,0.060059,0.081787,0.951416,-1.755725,-4.541985,-2.091603
301211505,0.063721,0.081787,0.968262,-2.305344,-4.572519,-2.000000
301223371,0.060547,0.077148,0.957764,-1.824427,-3.824427,-1.862595
301235243,0.052734,0.079102,0.952393,-2.534351,-3.641221,-1.900763
301247107,0.056152,0.071533,0.953125,-2.114504,-4.465649,-1.916031
301258968,0.058838,0.083496,0.951416,-1.900763,-4.816794,-1.870229
301270830,0.066895,0.074463,0.960205,-2.526718,-4.030534,-1.740458
301282703,0.066650,0.070801,0.962158,-1.671756,-3.870229,-1.725191
301294572,0.047363,0.072754,0.947266,-1.786260,-4.137404,-1.832061
301306436,0.056885,0.078857,0.948486,-1.984733,-4.381680,-1.900763
301318311,0.057617,0.076172,0.961914,-2.045802,-4.091603,-1.931298
301330189,0.052490,0.077148,0.968506,-1.938931,-3.984733,-1.763359
301342056,0.048584,0.076416,0.957031,-2.374046,-3.854962,-1.793893
301353915,0.054443,0.072510,0.948486,-2.198473,-4.038168,-2.015267
301365780,0.065186,0.075439,0.952637,-2.061069,-4.244275,-1.778626
301377647,0.057373,0.080078,0.953613,-1.793893,-4.564886,-1.946565
301389509,0.056885,0.087891,0.953613,-1.961832,-4.083970,-1.916031
301401372,0.056641,0.074951,0.958984,-2.137405,-4.022901,-2.022901
301413243,0.057129,0.075439,0.957275,-2.229008,-3.916031,-1.786260
301425107,0.057129,0.077393,0.942139,-2.450382,-3.992366,-1.755725
301436970,0.053467,0.075439,0.953857,-2.419847,-4.114504,-1.770992
301448834,0.052979,0.075928,0.958008,-2.328244,-4.190840,-1.916031
301460708,0.054932,0.072754,0.950928,-1.969466,-4.221374,-1.900763
301472572,0.054199,0.069580,0.966064,-2.175573,-4.213740,-1.984733
301484436,0.061523,0.073242,0.953125,-2.045802,-4.061069,-2.022901
301496307,0.056396,0.079102,0.949707,-2.190840,-4.290076,-1.931298
301508179,0.052490,0.083984,0.959473,-2.251908,-4.007634,-1.977099
301520042,0.057861,0.082764,0.958008,-2.274809,-4.213740,-1.992366
301531902,0.058105,0.066406,0.960205,-2.160305,-4.022901,-1.969466
301543768,0.054687,0.075195,0.959229,-2.129771,-4.114504,-1.954198
301555640,0.053467,0.078613,0.960693,-2.038168,-4.190840,-1.862595
301567508,0.056641,0.074707,0.951416,-2.076336,-4.183206,-1.977099
301579372,0.055908,0.076660,0.952148,-2.129771,-4.076336,-1.748092
301591246,0.058838,0.074219,0.954102,-1.809160,-4.000000,-1.946565
301603113,0.058350,0.080078,0.962891,-1.816794,-4.137404,-2.099237
301614971,0.058350,0.085205,0.956055,-1.900763,-4.396946,-2.137405
301626834,0.058350,0.077393,0.953857,-1.938931,-4.366412,-2.045802
301638706,0.058350,0.070312,0.953613,-1.854962,-4.076336,-2.129771
301650572,0.045898,0.079102,0.955811,-1.145038,-4.832061,-2.404580
301662436,0.066650,0.083740,0.972900,-2.435115,-4.610687,-2.076336
301674307,0.052246,0.080078,0.961426,-1.618321,-3.664122,-2.190840
301686178,0.058838,0.084717,0.951416,-2.045802,-4.152672,-2.129771
301698045,0.053223,0.082031,0.952637,-2.534351,-4.618320,-1.862595
301709904,0.056885,0.074951,0.963379,-1.946565,-4.717557,-1.908397
301721770,0.062256,0.079102,0.954834,-2.045802,-3.740458,-1.923664
301733641,0.054199,0.077393,0.958008,-2.610687,-3.969466,-1.755725
301745506,0.055176,0.073486,0.965332,-1.847328,-4.717557,-1.862595
301757372,0.062012,0.074951,0.950684,-2.030534,-4.236641,-1.862595
301769246,0.057617,0.074219,0.962158,-1.877863,-3.809160,-1.809160
301781107,0.052979,0.080811,0.962646,-1.717557,-3.862595,-1.916031
301792970,0.057861,0.080811,0.948730,-2.160305,-4.419847,-1.778626
301804834,0.060059,0.077881,0.958496,-2.259542,-3.473282,-1.725191
301816706,0.055420,0.068848,0.959717,-2.305344,-3.580153,-1.931298
301828572,0.052490,0.077637,0.956787,-2.091603,-3.938931,-1.931298
301840436,0.058350,0.078369,0.945312,-2.000000,-4.427481,-1.862595
301852308,0.065918,0.080078,0.957275,-1.847328,-4.129771,-1.816794
301864178,0.052246,0.083496,0.969238,-2.129771,-4.022901,-1.900763
301876042,0.057861,0.080078,0.961182,-1.961832,-4.206107,-2.038168
301887901,0.057617,0.082764,0.946289,-2.091603,-3.801527,-1.824427
301899767,0.050781,0.076416,0.956787,-2.480916,-4.229008,-1.969466
301911635,0.052979,0.072510,0.955566,-2.427481,-4.358778,-1.893130
301923502,0.053467,0.077881,0.953857,-2.122137,-4.358778,-1.725191
301935367,0.058838,0.072998,0.950439,-2.328244,-3.832061,-1.908397
301947240,0.050293,0.085205,0.957520,-2.175573,-3.931298,-1.969466
301959107,0.052734,0.078613,0.958008,-2.221374,-4.801527,-1.984733
301970968,0.062256,0.078369,0.957031,-2.129771,-4.351145,-2.007634
301982831,0.054687,0.073730,0.958252,-2.297710,-4.015267,-1.839695
301994703,0.064209,0.071777,0.960693,-2.099237,-4.160306,-1.969466
302006571,0.056885,0.065430,0.955078,-2.198473,-4.328244,-1.931298
302018436,0.045166,0.072998,0.955566,-1.954198,-4.091603,-1.954198
302030308,0.054687,0.071777,0.956299,-2.022901,-4.503817,-1.961832
302042180,0.057617,0.071289,0.950684,-2.015267,-4.290076,-2.015267
302054045,0.054687,0.070312,0.958008,-2.076336,-4.251908,-1.916031
302065904,0.061035,0.075195,0.953613,-2.076336,-4.106870,-2.068702
302077769,0.039795,0.060791,0.948486,-1.358779,-4.030534,-2.328244
302089640,0.055664,0.089844,0.951660,-0.763359,-5.732824,-2.198473
302101505,0.072754,0.087891,0.958008,-3.137405,-4.221374,-1.839695
302113371,0.060059,0.079102,0.968506,-1.030534,-3.671756,-1.946565
302125242,0.052979,0.092285,0.934814,-2.251908,-3.755725,-2.045802
302137107,0.046875,0.070557,0.954102,-3.229008,-4.526718,-1.954198
302148968,0.055664,0.082520,0.956543,-1.450382,-5.229008,-2.015267
302160831,0.070068,0.078857,0.948975,-2.435115,-4.000000,-1.839695
302172703,0.058350,0.062988,0.977051,-3.274809,-3.732824,-1.870229
302184572,0.063477,0.073975,0.966553,-1.022901,-3.732824,-1.969466
302196436,0.053467,0.073242,0.937256,-1.770992,-3.954198,-1.931298
302208308,0.051270,0.079590,0.958740,-2.076336,-4.229008,-1.877863
302220180,0.060547,0.088135,0.968506,-2.045802,-4.305344,-2.068702
302232045,0.064941,0.078369,0.955566,-1.931298,-4.015267,-1.839695
302243905,0.052246,0.080078,0.947266,-2.389313,-3.320611,-1.748092
302255769,0.055908,0.077148,0.959473,-2.145038,-4.099236,-1.900763
302267640,0.052002,0.077393,0.947754,-2.190840,-4.129771,-1.862595
302279505,0.058350,0.075684,0.951904,-2.022901,-4.061069,-1.870229
302291371,0.055664,0.083740,0.959229,-1.946565,-3.625954,-1.946565
302303242,0.056641,0.083496,0.956787,-2.152672,-4.099236,-1.832061
302315107,0.060303,0.078125,0.952148,-2.595420,-3.885496,-1.740458
302326968,0.051025,0.072021,0.950684,-2.229008,-3.396947,-1.809160
302338831,0.051514,0.072998,0.946289,-2.259542,-4.076336,-1.603053
302350704,0.054687,0.071533,0.962158,-2.290076,-4.572519,-1.862595
302362571,0.061035,0.072266,0.958252,-2.351145,-3.854962,-1.908397
302374436,0.055664,0.079834,0.952637,-1.916031,-3.656489,-2.022901
302386308,0.050537,0.080811,0.950439,-1.824427,-4.419847,-1.923664
302398180,0.053467,0.081543,0.946533,-2.122137,-4.129771,-1.969466
302410045,0.055664,0.077148,0.966309,-2.328244,-4.175572,-2.030534
302421904,0.057861,0.081543,0.959229,-2.213740,-4.320611,-1.839695
302433771,0.052490,0.073975,0.958740,-2.244275,-4.358778,-2.061069
302445640,0.062256,0.074463,0.955566,-1.793893,-4.206107,-1.946565
302457508,0.056396,0.071533,0.953857,-1.427481,-4.091603,-1.992366
302469372,0.045654,0.095947,0.956055,-1.290076,-5.206107,-2.236641
302481242,0.067383,0.080322,0.967529,-2.526718,-4.480916,-2.213740
302493107,0.063965,0.079346,0.971436,-1.877863,-3.687023,-2.106870
302504970,0.053223,0.083740,0.941650,-1.908397,-3.595420,-1.938931
302516834,0.055420,0.082275,0.945068,-2.541985,-4.847328,-1.893130
302528706,0.057373,0.075684,0.956787,-2.320611,-4.610687,-1.961832
302540572,0.062012,0.083252,0.956299,-1.610687,-4.259542,-2.000000
302552436,0.057129,0.073975,0.961914,-2.763359,-4.061069,-1.816794
302564307,0.056885,0.074707,0.962891,-1.534351,-4.030534,-1.992366
302576180,0.057373,0.079346,0.939453,-1.725191,-4.274809,-1.908397
302588043,0.046875,0.075195,0.951904,-2.519084,-3.938931,-1.877863
302599904,0.061523,0.080078,0.964111,-2.160305,-4.274809,-1.786260
302611769,0.060303,0.081787,0.959473,-2.068702,-3.793893,-1.664122
302623640,0.054932,0.076660,0.951660,-2.488550,-3.404580,-1.893130
302635505,0.057373,0.073242,0.950195,-1.923664,-4.320611,-1.671756
302647373,0.055420,0.079346,0.955811,-1.763359,-4.358778,-2.145038
302659246,0.062744,0.076904,0.956299,-1.748092,-4.389313,-1.916031
302671113,0.055664,0.085693,0.948242,-2.236641,-3.916031,-1.916031
302682972,0.047363,0.076904,0.961426,-2.381679,-4.000000,-1.732824
302694835,0.058350,0.078613,0.957275,-1.832061,-4.274809,-1.938931
302706707,0.055908,0.078857,0.952637,-2.198473,-4.068702,-1.671756
302718576,0.059814,0.072266,0.963867,-2.091603,-4.450382,-1.748092
302730442,0.055176,0.075439,0.966309,-2.404580,-4.343512,-1.854962
302742311,0.052246,0.073730,0.964111,-2.251908,-3.938931,-1.908397
302754188,0.050049,0.069580,0.958252,-2.114504,-3.801527,-1.870229
302766046,0.052002,0.081787,0.949463,-2.045802,-4.488550,-1.961832
302777903,0.061279,0.072266,0.964844,-2.022901,-4.412214,-1.916031
302789769,0.055176,0.068848,0.960205,-1.954198,-4.167939,-1.885496
302801640,0.054932,0.076660,0.959717,-1.877863,-4.053435,-2.000000
302813504,0.047119,0.073242,0.948486,-1.885496,-4.427481,-2.068702
302825370,0.054687,0.079346,0.948486,-1.839695,-4.259542,-2.083969
302837242,0.042236,0.063232,0.946533,-1.114504,-4.167939,-2.366412
302849107,0.056152,0.086914,0.953369,-1.091603,-5.496183,-2.160305
302860968,0.080566,0.084717,0.982178,-3.099237,-4.290076,-1.992366
302872831,0.055908,0.085693,0.973877,-1.152672,-3.160305,-1.992366
302884704,0.046875,0.069580,0.937012,-2.450382,-3.496183,-1.702290
302896572,0.053223,0.075195,0.946289,-2.572519,-5.061069,-2.015267
302908436,0.065918,0.075195,0.948730,-2.404580,-4.870229,-1.885496
302920308,0.068359,0.071045,0.969727,-2.633588,-3.572519,-1.641221
302932180,0.054932,0.066406,0.969727,-2.068702,-3.473282,-1.793893
302944045,0.051514,0.072754,0.933350,-1.664122,-4.282443,-1.862595
302955904,0.057373,0.078369,0.953857,-2.236641,-4.694656,-1.725191
302967769,0.070312,0.082031,0.961670,-2.114504,-3.923664,-1.961832
302979640,0.051514,0.074219,0.969971,-2.274809,-3.969466,-1.900763
302991506,0.048828,0.066406,0.953857,-2.198473,-4.229008,-1.809160
303003370,0.056885,0.077393,0.952637,-2.213740,-3.763359,-1.832061
303015242,0.055176,0.073242,0.951904,-2.167939,-4.061069,-1.870229
303027107,0.052246,0.077881,0.947266,-2.282443,-4.129771,-1.770992
303038970,0.062256,0.078857,0.948486,-2.320611,-4.122138,-1.847328
303050834,0.061768,0.078613,0.958008,-2.465649,-4.000000,-1.679389
303062705,0.054687,0.074951,0.962402,-2.297710,-3.847328,-1.854962
303074576,0.056396,0.074707,0.954102,-2.053435,-3.824427,-1.877863
303086443,0.055908,0.077637,0.952637,-2.083969,-4.122138,-1.977099
303098315,0.054932,0.074463,0.956299,-2.038168,-4.190840,-1.717557
303110188,0.056152,0.072021,0.963135,-2.129771,-4.290076,-1.900763
303122047,0.059326,0.073486,0.955566,-2.106870,-4.244275,-1.755725
303133908,0.056152,0.084717,0.957275,-2.000000,-4.129771,-1.938931
303145773,0.052979,0.082520,0.958008,-2.167939,-4.236641,-2.083969
303157640,0.054443,0.077393,0.952637,-1.961832,-4.206107,-2.137405
303169505,0.065918,0.076416,0.963867,-1.854962,-4.389313,-2.007634
303181372,0.055908,0.073730,0.959229,-1.770992,-4.206107,-2.099237
303193243,0.043945,0.089111,0.947021,-1.244275,-4.946565,-2.213740
303205107,0.067383,0.078857,0.973389,-2.709924,-4.954198,-1.900763
303216968,0.050781,0.080811,0.976807,-1.580153,-3.877863,-1.862595
303228830,0.054199,0.092773,0.936035,-1.816794,-3.679389,-2.129771
303240704,0.052002,0.072754,0.940918,-2.893130,-4.664122,-1.740458
303252571,0.057129,0.076660,0.969482,-2.396947,-4.938931,-1.931298
303264436,0.064453,0.080566,0.943359,-1.664122,-3.824427,-1.786260
303276307,0.055908,0.070068,0.958740,-2.671756,-3.503817,-1.969466
303288178,0.060059,0.075195,0.958496,-1.496183,-4.488550,-1.908397
303300045,0.059814,0.082275,0.941406,-1.717557,-4.198473,-1.793893
303311905,0.061523,0.074951,0.950928,-2.320611,-3.625954,-1.801527
303323770,0.057861,0.078125,0.967773,-1.954198,-4.198473,-2.000000
303335640,0.052002,0.075439,0.960205,-2.358779,-4.145038,-1.732824
303347506,0.058350,0.078613,0.957275,-1.984733,-3.862595,-1.809160
303359372,0.047119,0.078857,0.954590,-2.106870,-3.877863,-1.671756
303371246,0.055664,0.081299,0.953857,-2.137405,-4.145038,-2.053435
303383107,0.052490,0.074219,0.955322,-2.076336,-4.206107,-1.717557
303394968,0.054443,0.075439,0.957275,-2.320611,-3.885496,-1.946565
303406831,0.047852,0.077881,0.957764,-2.297710,-3.946565,-1.778626
303418706,0.048096,0.079346,0.952637,-2.213740,-4.458015,-1.763359
303430576,0.058105,0.074219,0.952881,-2.213740,-3.992366,-1.648855
303442445,0.059570,0.082275,0.957520,-2.030534,-3.816794,-1.793893
303454315,0.055908,0.079590,0.952637,-1.900763,-4.091603,-1.854962
303466188,0.059082,0.072510,0.958984,-2.000000,-4.343512,-1.961832
303478046,0.056885,0.073486,0.959473,-2.152672,-3.870229,-1.870229
303489905,0.046631,0.072754,0.959717,-1.839695,-4.122138,-2.030534
303501769,0.051270,0.080078,0.961426,-2.091603,-4.435114,-1.984733
303513640,0.051758,0.072266,0.959961,-2.213740,-4.282443,-2.114504
303525508,0.058838,0.077148,0.951416,-1.847328,-4.175572,-1.877863
303537372,0.058594,0.075928,0.947021,-1.877863,-4.351145,-2.000000
303549243,0.056885,0.073486,0.950195,-1.862595,-4.534351,-2.022901
303561113,0.046631,0.068848,0.944092,-1.083969,-4.442748,-2.290076
303572971,0.062744,0.087646,0.956055,-1.648855,-4.740458,-1.923664
303584835,0.056641,0.083496,0.965332,-2.244275,-4.374046,-2.061069
303596708,0.047119,0.079102,0.965576,-1.832061,-3.671756,-1.847328
303608576,0.058594,0.069336,0.941406,-2.610687,-3.832061,-1.923664
303620442,0.054443,0.083252,0.945557,-1.687023,-5.114504,-2.091603
303632310,0.062256,0.084229,0.948486,-2.740458,-4.633588,-1.694656
303644188,0.068359,0.072510,0.970459,-2.351145,-3.541985,-1.755725
303656048,0.057373,0.067139,0.959961,-1.748092,-3.122137,-1.900763
303667907,0.048340,0.083496,0.938477,-1.969466,-3.923664,-1.687023
303679774,0.050293,0.072510,0.956299,-2.366412,-4.328244,-1.969466
303691641,0.060059,0.080078,0.962158,-1.923664,-4.282443,-1.946565
303703506,0.056641,0.083008,0.962402,-1.938931,-4.251908,-1.885496
303715372,0.049316,0.072998,0.958252,-2.213740,-3.870229,-1.709924
303727246,0.053955,0.072510,0.962891,-2.175573,-4.083970,-1.931298
303739107,0.048828,0.082520,0.954834,-2.160305,-3.900763,-1.709924
303750968,0.056152,0.078369,0.949951,-2.145038,-4.427481,-1.870229
303762831,0.061035,0.080811,0.963867,-2.374046,-4.137404,-1.900763
303774703,0.059570,0.073730,0.961426,-2.167939,-3.984733,-2.114504
303786572,0.056396,0.068848,0.964844,-2.290076,-3.877863,-1.786260
303798435,0.051270,0.077393,0.960937,-2.198473,-4.022901,-1.755725
303810308,0.057617,0.080811,0.950439,-2.015267,-4.320611,-1.977099
303822179,0.053955,0.070801,0.951904,-2.259542,-4.320611,-2.068702
303834042,0.053711,0.081543,0.958252,-1.908397,-4.106870,-1.870229
303845902,0.056396,0.074707,0.962646,-2.030534,-4.473282,-2.022901
303857767,0.050049,0.076660,0.948486,-2.229008,-4.244275,-1.984733
303869641,0.055420,0.074707,0.949219,-1.984733,-4.366412,-2.053435
303881506,0.049072,0.075928,0.958740,-1.793893,-4.297710,-2.145038
303893371,0.053223,0.065430,0.954102,-1.511450,-4.847328,-2.053435
303905243,0.060791,0.088135,0.961670,-1.977099,-4.793893,-1.923664
303917113,0.058594,0.080322,0.960937,-2.267176,-4.267176,-2.000000
303928971,0.060791,0.086182,0.955078,-1.969466,-3.748092,-1.916031
303940835,0.054443,0.075928,0.957764,-3.099237,-4.083970,-1.633588
303952706,0.054932,0.070801,0.963135,-2.068702,-4.618320,-1.854962
303964576,0.066406,0.083496,0.946777,-2.251908,-4.587786,-1.916031
303976443,0.060547,0.072754,0.955322,-2.900763,-3.732824,-1.717557
303988312,0.060547,0.072266,0.973389,-1.908397,-3.793893,-1.870229
304000189,0.055664,0.078125,0.946777,-1.656489,-3.694656,-1.954198
304012055,0.051270,0.083984,0.946777,-2.442748,-4.015267,-1.961832
304023913,0.053711,0.076660,0.963379,-2.320611,-4.206107,-1.816794
304035778,0.060791,0.076416,0.960693,-2.290076,-4.114504,-1.824427
304047648,0.054687,0.073975,0.949219,-1.847328,-3.938931,-1.862595
304059513,0.045166,0.075439,0.954346,-2.229008,-3.893130,-1.877863
304071380,0.052734,0.083740,0.953125,-1.778626,-4.473282,-1.931298
304083259,0.061035,0.080322,0.949707,-2.167939,-4.389313,-2.007634
304095125,0.055176,0.078857,0.960693,-2.229008,-3.923664,-1.908397
304106985,0.052979,0.075684,0.967773,-2.290076,-3.938931,-1.931298
304118849,0.056152,0.075684,0.948486,-2.106870,-4.290076,-1.763359
304130720,0.055176,0.075684,0.948242,-2.183206,-4.267176,-1.908397
304142590,0.056396,0.077637,0.958008,-2.000000,-4.106870,-1.938931
304154466,0.054199,0.076416,0.961426,-1.801527,-4.045802,-2.083969
304166336,0.054199,0.070557,0.962158,-2.374046,-4.122138,-1.946565
304178221,0.054199,0.074219,0.959961,-1.977099,-3.969466,-2.061069
304190096,0.055420,0.074463,0.957031,-1.900763,-4.389313,-2.068702
304201967,0.064941,0.083984,0.952393,-1.916031,-4.412214,-2.022901
304213831,0.043457,0.073730,0.946777,-1.358779,-4.503817,-2.175573
304225704,0.059814,0.074707,0.972656,-2.374046,-4.717557,-2.053435
304237571,0.057373,0.074707,0.963135,-1.473282,-4.221374,-2.312977
304249436,0.055908,0.091309,0.954590,-1.488550,-3.809160,-2.190840
304261307,0.048340,0.082764,0.937256,-2.366412,-4.503817,-1.816794
304273179,0.053711,0.084717,0.976318,-2.778626,-4.152672,-1.854962
304285042,0.065918,0.065186,0.950928,-1.992366,-4.007634,-1.893130
304296904,0.058838,0.077637,0.945557,-1.862595,-3.908397,-1.893130
304308769,0.048340,0.072266,0.956543,-3.145038,-4.587786,-1.603053
304320640,0.064941,0.067627,0.977783,-1.748092,-3.984733,-1.740458
304332508,0.062500,0.079834,0.946533,-1.793893,-3.526718,-1.793893
304344371,0.049561,0.075684,0.952637,-2.145038,-3.786260,-1.847328
304356246,0.051514,0.076904,0.966064,-1.969466,-4.732824,-1.992366
304368113,0.061035,0.076660,0.955078,-1.984733,-4.259542,-1.908397
304379972,0.056396,0.073242,0.953369,-2.030534,-3.312977,-1.938931
304391836,0.046143,0.083984,0.951660,-2.358779,-3.786260,-1.877863
304403709,0.053711,0.078613,0.946777,-1.969466,-4.641222,-1.717557
304415576,0.063232,0.080322,0.940674,-2.175573,-4.190840,-1.847328
304427443,0.054932,0.077148,0.955078,-2.473282,-3.526718,-1.633588
304439316,0.056885,0.081299,0.963623,-2.206107,-4.221374,-1.763359
304451188,0.060547,0.072998,0.957764,-2.221374,-4.312977,-1.885496
304463049,0.054687,0.070312,0.956787,-2.343511,-3.671756,-1.900763
304474910,0.051514,0.077393,0.960937,-1.977099,-3.847328,-1.694656
304486777,0.054443,0.079346,0.959717,-1.977099,-4.488550,-1.961832
304498641,0.054932,0.072998,0.950928,-2.022901,-4.022901,-1.954198
304510505,0.048096,0.078369,0.955322,-2.038168,-3.755725,-1.984733
304522373,0.049316,0.077881,0.955566,-1.946565,-4.450382,-1.916031
304534244,0.064697,0.077637,0.956787,-1.862595,-4.625954,-1.916031
304546107,0.062500,0.076904,0.953369,-1.870229,-4.007634,-1.877863
304557968,0.043457,0.065186,0.961182,-1.778626,-3.893130,-2.152672
304569833,0.054687,0.089600,0.943848,-0.587786,-5.519084,-2.099237
304581706,0.077393,0.093994,0.952881,-3.206107,-4.725191,-1.938931
304593572,0.056885,0.082031,0.970215,-1.816794,-3.366412,-2.022901
304605436,0.051270,0.076904,0.942627,-1.740458,-3.725191,-2.053435
304617307,0.039307,0.078613,0.944092,-2.564885,-4.770992,-1.885496
304629180,0.052979,0.077393,0.972168,-2.511450,-5.022901,-2.076336
304641045,0.067627,0.077881,0.954346,-1.984733,-3.389313,-1.923664
304652905,0.056396,0.067383,0.972900,-2.725191,-3.290076,-1.610687
304664770,0.045410,0.067139,0.952637,-1.954198,-4.442748,-1.847328
304676641,0.049561,0.075439,0.951416,-1.946565,-3.732824,-1.870229
304688506,0.065674,0.080322,0.952637,-1.908397,-4.099236,-1.969466
304700371,0.054932,0.076416,0.973145,-1.854962,-4.320611,-1.793893
304712243,0.052490,0.077148,0.952881,-2.290076,-3.885496,-1.946565
304724113,0.058350,0.079346,0.955078,-1.961832,-3.870229,-1.984733
304735975,0.056885,0.080078,0.954590,-2.061069,-4.061069,-1.702290
304747836,0.054687,0.083496,0.951904,-2.099237,-3.961832,-1.847328
304759709,0.057373,0.075439,0.956543,-2.297710,-4.267176,-1.793893
304771576,0.052734,0.077148,0.954834,-2.396947,-4.160306,-1.992366
304783445,0.050537,0.072266,0.953369,-2.358779,-3.534351,-1.923664
304795315,0.052002,0.074463,0.961426,-2.175573,-3.801527,-1.870229
304807188,0.059570,0.079590,0.952637,-2.229008,-4.236641,-1.877863
304819047,0.051025,0.076172,0.943604,-2.083969,-4.076336,-1.885496
304830908,0.057373,0.078613,0.952881,-2.038168,-3.977099,-1.877863
304842777,0.053223,0.079834,0.957031,-2.213740,-4.259542,-1.946565
304854647,0.053467,0.071777,0.961670,-2.106870,-4.145038,-1.755725
304866509,0.057373,0.070557,0.952393,-1.832061,-4.106870,-1.954198
304878372,0.057861,0.072998,0.966064,-1.847328,-4.366412,-2.007634
304890242,0.045654,0.062012,0.949463,-1.900763,-4.106870,-2.083969
304902106,0.055420,0.080811,0.944336,-0.671756,-5.244275,-2.267176
304913968,0.069092,0.091309,0.962646,-2.854962,-4.923664,-1.931298
304925831,0.056396,0.083252,0.964111,-1.221374,-3.610687,-2.022901
304937704,0.044678,0.090088,0.950928,-2.763359,-3.022901,-1.801527
304949572,0.048096,0.057617,0.950928,-2.541985,-4.335878,-1.862595
304961436,0.058350,0.083496,0.946777,-1.198473,-5.809160,-2.061069
304973307,0.062256,0.078857,0.948730,-2.740458,-3.885496,-1.671756
304985180,0.057861,0.066162,0.996338,-2.389313,-3.549618,-1.770992
304997045,0.059570,0.075928,0.942139,-1.198473,-3.755725,-2.122137
305008905,0.045166,0.075195,0.937988,-1.938931,-4.251908,-1.931298
305020770,0.050049,0.077393,0.948975,-2.274809,-4.198473,-1.916031
305032641,0.055908,0.076416,0.967041,-1.847328,-4.328244,-1.900763
305044505,0.065918,0.074463,0.947510,-1.778626,-4.221374,-1.809160
305056371,0.051758,0.074219,0.954590,-2.160305,-3.610687,-1.992366
305068246,0.058105,0.079346,0.955566,-1.694656,-4.427481,-2.160305
305080107,0.053223,0.076172,0.948730,-1.839695,-4.549618,-1.847328
305091970,0.051758,0.083008,0.954834,-2.221374,-4.305344,-1.839695
305103834,0.051270,0.078369,0.956055,-2.435115,-3.702290,-1.770992
305115706,0.052734,0.082520,0.953613,-2.190840,-4.114504,-1.862595
305127572,0.057129,0.072998,0.953857,-2.465649,-4.236641,-1.748092
305139435,0.054687,0.077393,0.956055,-2.351145,-3.923664,-1.961832
305151307,0.057861,0.072266,0.955566,-2.297710,-4.152672,-1.824427
305163179,0.057373,0.074951,0.955078,-1.977099,-4.305344,-1.732824
305175042,0.054443,0.076904,0.953613,-1.969466,-4.427481,-1.946565
305186901,0.054687,0.079102,0.958740,-2.061069,-4.061069,-1.923664
305198767,0.054199,0.074951,0.962158,-2.015267,-4.694656,-1.992366
305210636,0.055664,0.081543,0.950928,-1.946565,-4.198473,-1.954198
305222502,0.053955,0.072754,0.954834,-2.091603,-3.916031,-1.984733
305234370,0.046387,0.062256,0.949707,-1.519084,-4.519084,-2.335878
305246243,0.053223,0.085449,0.952637,-1.396947,-5.343512,-2.083969
305258107,0.062256,0.087158,0.965088,-3.175573,-4.221374,-1.793893
305269970,0.059814,0.078125,0.963867,-1.763359,-2.931298,-1.725191
305281836,0.044189,0.071045,0.944824,-2.748092,-3.908397,-1.770992
305293708,0.050049,0.072510,0.939941,-1.847328,-4.877862,-1.847328
305305576,0.063477,0.081787,0.942383,-2.419847,-4.977099,-1.824427
305317445,0.066650,0.071045,0.969727,-2.496183,-4.053435,-1.969466
305329323,0.052979,0.073975,0.977295,-1.908397,-3.297710,-1.717557
305341194,0.050049,0.075195,0.954590,-1.816794,-3.793893,-2.045802
305353057,0.055176,0.072754,0.951416,-2.366412,-4.473282,-1.778626
305364919,0.062256,0.073975,0.965576,-2.022901,-4.190840,-1.732824
305376794,0.068115,0.077148,0.966309,-1.633588,-3.961832,-1.778626
305388660,0.056885,0.078369,0.940186,-1.862595,-3.870229,-2.053435
305400536,0.054443,0.076416,0.958740,-2.274809,-4.068702,-2.160305
305412404,0.054443,0.072754,0.969238,-2.030534,-4.137404,-2.000000
305424287,0.055176,0.079346,0.949951,-2.045802,-4.152672,-1.832061
305436167,0.061768,0.077637,0.954834,-2.320611,-3.923664,-1.824427
305448037,0.058838,0.072510,0.962158,-2.290076,-4.129771,-1.870229
305459899,0.054199,0.074219,0.961426,-2.045802,-4.251908,-1.931298
305471767,0.058594,0.072021,0.965088,-2.045802,-3.870229,-1.923664
305483635,0.060303,0.074219,0.950684,-2.343511,-4.381680,-1.885496
305495502,0.058594,0.075928,0.950439,-2.259542,-4.419847,-2.038168
305507370,0.048584,0.067383,0.960449,-2.022901,-4.083970,-1.961832
305519242,0.058594,0.073486,0.951172,-1.992366,-3.900763,-1.809160
305531113,0.059326,0.077393,0.958008,-2.099237,-4.251908,-2.053435
305542971,0.056152,0.074951,0.954102,-2.206107,-4.351145,-1.931298
305554837,0.057617,0.077393,0.954590,-2.068702,-3.763359,-1.717557
305566708,0.059326,0.075439,0.963379,-2.053435,-4.206107,-1.755725
305578576,0.061523,0.070557,0.951172,-1.992366,-4.083970,-1.740458
305590442,0.060303,0.075439,0.960205,-1.923664,-4.152672,-1.893130
305602311,0.052246,0.082031,0.947510,-1.786260,-4.007634,-1.877863
305614180,0.059326,0.073730,0.958252,-1.931298,-4.351145,-2.000000
305626045,0.061523,0.078613,0.959473,-1.923664,-4.297710,-1.938931
305637904,0.054687,0.079346,0.955078,-2.083969,-4.015267,-1.931298
305649769,0.055664,0.079102,0.956299,-1.740458,-4.290076,-2.114504
305661641,0.059326,0.077148,0.956543,-1.893130,-4.137404,-2.007634
305673504,0.048096,0.082275,0.942383,-1.488550,-4.587786,-2.297710
305685371,0.062500,0.081299,0.966553,-2.534351,-4.702290,-1.938931
305697247,0.061768,0.079346,0.963135,-1.916031,-4.015267,-1.961832
305709113,0.051270,0.078613,0.956055,-1.900763,-3.717557,-1.961832
305720972,0.048828,0.078125,0.951416,-2.404580,-4.290076,-1.832061
305732839,0.060791,0.074707,0.967773,-2.374046,-4.946565,-2.122137
305744713,0.065918,0.075439,0.958008,-2.297710,-4.213740,-2.038168
305756576,0.063232,0.069092,0.948975,-2.351145,-3.526718,-2.099237
305768445,0.050293,0.073242,0.946045,-1.389313,-4.305344,-2.030534
305780315,0.053955,0.082031,0.950195,-1.931298,-4.526718,-1.916031
305792188,0.062256,0.080811,0.958984,-2.160305,-4.061069,-1.900763
305804047,0.059082,0.077637,0.966797,-1.679389,-3.572519,-1.809160
305815908,0.058350,0.075195,0.943848,-2.022901,-3.969466,-1.923664
305827774,0.052002,0.071533,0.949707,-2.129771,-4.183206,-1.954198
305839641,0.064209,0.074219,0.956055,-2.251908,-3.977099,-1.908397
305851505,0.053467,0.071045,0.956299,-1.938931,-4.160306,-1.854962
305863372,0.054199,0.076172,0.947021,-2.145038,-4.328244,-1.839695
305875254,0.052490,0.068604,0.955566,-2.465649,-3.847328,-1.778626
305887116,0.057861,0.080811,0.967773,-1.984733,-4.167939,-1.717557
305898973,0.059326,0.083008,0.952393,-1.824427,-3.946565,-1.832061
305910837,0.053467,0.076416,0.946777,-2.305344,-4.129771,-1.809160
305922708,0.052490,0.076416,0.958496,-2.351145,-4.099236,-1.954198
305934576,0.064697,0.071045,0.961426,-2.106870,-4.251908,-2.000000
305946441,0.056152,0.079590,0.949951,-1.961832,-4.007634,-1.717557
305958311,0.060547,0.075928,0.959961,-2.038168,-3.908397,-1.862595
305970188,0.054199,0.081055,0.952148,-2.030534,-4.297710,-1.908397
305982047,0.059814,0.076416,0.948242,-1.893130,-4.259542,-1.839695
305993908,0.062744,0.079346,0.966064,-2.221374,-4.137404,-2.045802
306005777,0.059570,0.076660,0.968262,-1.969466,-4.137404,-2.007634
306017641,0.055908,0.078857,0.951172,-1.854962,-4.022901,-1.801527
306029507,0.055176,0.075195,0.955322,-2.068702,-4.213740,-1.923664
306041371,0.056396,0.078857,0.955566,-1.916031,-4.335878,-2.183206
306053242,0.061768,0.075439,0.953613,-1.984733,-4.114504,-1.916031
306065106,0.056152,0.085937,0.952881,-2.015267,-4.045802,-1.893130
306076968,0.058350,0.074707,0.959473,-2.145038,-3.977099,-1.854962
306088831,0.056885,0.082764,0.957275,-2.030534,-4.183206,-1.969466
306100703,0.057861,0.078369,0.957031,-1.969466,-4.190840,-1.893130
306112572,0.054443,0.079102,0.959229,-2.000000,-3.946565,-1.839695
306124436,0.049316,0.078613,0.949707,-2.160305,-4.175572,-1.854962
306136307,0.055908,0.072510,0.944580,-2.061069,-4.229008,-2.000000
306148178,0.058350,0.079834,0.956055,-2.053435,-4.351145,-1.984733
306160045,0.057617,0.072998,0.951172,-1.992366,-4.038168,-1.938931
306171905,0.062744,0.073242,0.952881,-2.061069,-4.412214,-1.793893
306183770,0.056396,0.075195,0.960937,-2.068702,-4.190840,-2.076336
306195640,0.052979,0.069824,0.956055,-1.946565,-3.969466,-1.954198
306207506,0.056885,0.078857,0.954590,-2.083969,-4.435114,-1.732824
306219371,0.053467,0.077637,0.950928,-2.167939,-4.129771,-1.923664
306231246,0.048828,0.081299,0.953857,-2.106870,-4.305344,-1.854962
306243107,0.059082,0.072754,0.944580,-2.045802,-4.305344,-1.824427
306254968,0.061523,0.077637,0.961670,-1.961832,-4.274809,-1.893130
306266831,0.055176,0.075684,0.950928,-1.931298,-4.022901,-1.938931
306278704,0.062012,0.080078,0.963623,-1.923664,-4.183206,-1.900763
306290571,0.055908,0.079834,0.959717,-1.832061,-4.312977,-1.969466
306302436,0.054932,0.072021,0.951904,-1.938931,-4.343512,-1.854962
306314307,0.059326,0.075439,0.960693,-1.923664,-4.274809,-2.022901
306326179,0.052979,0.074951,0.953613,-2.015267,-4.335878,-2.022901
306338045,0.056885,0.071533,0.957520,-2.061069,-4.625954,-1.900763
306349903,0.057861,0.081299,0.960205,-1.900763,-4.496183,-2.198473
306361767,0.051270,0.072754,0.955078,-1.832061,-4.244275,-1.938931
306373640,0.050781,0.075439,0.949219,-1.832061,-4.290076,-2.122137
306385504,0.044678,0.076904,0.957520,-0.946565,-5.236641,-2.183206
306397370,0.063721,0.083984,0.965576,-2.801527,-4.778626,-2.045802
306409239,0.062012,0.075439,0.975586,-1.969466,-3.694656,-2.061069
306421106,0.054932,0.080322,0.951416,-1.824427,-3.496183,-1.923664
306432968,0.052246,0.070557,0.943115,-2.732824,-4.435114,-1.763359
306444831,0.054687,0.084229,0.964844,-2.274809,-5.129771,-2.015267
306456704,0.061279,0.079834,0.950439,-2.030534,-4.030534,-1.946565
306468571,0.055908,0.065430,0.976562,-3.206107,-3.435115,-1.801527
306480436,0.061523,0.078125,0.943848,-0.580153,-4.702290,-2.076336
306492308,0.058350,0.089844,0.931152,-2.229008,-4.320611,-1.854962
306504179,0.061768,0.075195,0.968262,-3.114504,-3.954198,-1.595420
306516045,0.066406,0.075684,0.965576,-1.221374,-3.801527,-1.984733
306527904,0.053711,0.082764,0.937256,-2.282443,-4.206107,-1.816794
306539769,0.050781,0.072754,0.953857,-2.702290,-3.862595,-1.717557
306551640,0.055176,0.073242,0.967773,-2.305344,-3.908397,-1.977099
306563505,0.059082,0.072510,0.955566,-1.816794,-4.244275,-2.038168
306575372,0.050049,0.079346,0.947754,-2.053435,-4.450382,-1.938931
306587242,0.055176,0.081055,0.969482,-2.274809,-3.885496,-1.946565
306599113,0.063477,0.076416,0.956055,-1.770992,-4.274809,-1.954198
306610975,0.056641,0.089355,0.939209,-2.099237,-4.206107,-1.755725
306622836,0.052734,0.078857,0.951416,-2.450382,-3.916031,-1.923664
306634708,0.057861,0.076660,0.949707,-2.396947,-4.305344,-1.854962
306646576,0.063232,0.078125,0.967773,-2.282443,-4.152672,-1.870229
306658445,0.058594,0.071777,0.964355,-2.061069,-3.770992,-2.030534
306670313,0.047852,0.071045,0.953857,-2.190840,-3.793893,-1.854962
306682188,0.047607,0.078125,0.950195,-2.091603,-4.412214,-1.893130
306694047,0.045410,0.080078,0.957764,-1.740458,-4.221374,-1.862595
306705908,0.055908,0.068359,0.956055,-2.145038,-4.030534,-1.824427
306717773,0.051514,0.074707,0.958496,-2.145038,-4.114504,-1.931298
306729640,0.052979,0.076660,0.958496,-1.984733,-4.175572,-1.954198
306741505,0.057861,0.074219,0.947266,-2.015267,-3.984733,-1.984733
306753371,0.048584,0.081299,0.949219,-2.083969,-4.297710,-1.885496
306765246,0.052979,0.071289,0.967529,-2.000000,-4.312977,-2.022901
306777107,0.054199,0.073730,0.954102,-1.633588,-4.526718,-2.244275
306788968,0.057617,0.068848,0.952393,-2.099237,-4.740458,-2.045802
306800831,0.061279,0.078125,0.964600,-1.656489,-4.358778,-2.061069
306812704,0.049316,0.072998,0.953613,-1.641221,-4.229008,-2.198473
306824572,0.053711,0.078369,0.941406,-1.954198,-4.412214,-1.908397
306836436,0.055176,0.077393,0.960937,-2.175573,-4.641222,-1.748092
306848307,0.057129,0.077637,0.962891,-2.083969,-4.244275,-1.916031
306860180,0.058350,0.072754,0.945801,-1.824427,-3.839695,-1.931298
306872045,0.059814,0.078613,0.948242,-2.221374,-4.343512,-2.007634
306883903,0.062744,0.075195,0.961914,-2.122137,-4.366412,-1.854962
306895768,0.069824,0.072510,0.957764,-1.862595,-3.854962,-1.763359
306907640,0.056641,0.072754,0.953613,-1.870229,-3.816794,-1.900763
306919508,0.045410,0.076660,0.959473,-2.114504,-4.236641,-1.893130
306931373,0.057617,0.083008,0.947998,-1.870229,-4.396946,-1.885496
306943246,0.052979,0.073486,0.947998,-2.251908,-3.770992,-1.732824
306955113,0.050293,0.073242,0.964844,-2.381679,-3.625954,-1.938931
306966972,0.064453,0.073730,0.952637,-1.916031,-4.076336,-1.839695
306978839,0.057861,0.081543,0.949219,-2.083969,-4.053435,-1.946565
306990715,0.054443,0.075684,0.946777,-2.061069,-3.923664,-1.954198
307002579,0.048340,0.081543,0.954102,-2.000000,-4.519084,-1.709924
307014444,0.055664,0.081299,0.963135,-2.305344,-4.427481,-2.114504
307026322,0.054199,0.081055,0.950439,-2.045802,-3.625954,-1.824427
307038194,0.050537,0.082764,0.951416,-2.580153,-3.770992,-1.709924
307050061,0.055908,0.072266,0.954346,-2.198473,-4.175572,-1.870229
307061930,0.063721,0.070801,0.953125,-2.267176,-4.206107,-1.824427
307073801,0.054199,0.078857,0.956055,-2.053435,-3.770992,-1.854962
307085684,0.055176,0.073242,0.958984,-1.900763,-4.312977,-1.992366
307097561,0.052246,0.075928,0.953613,-2.114504,-4.206107,-1.801527
307109432,0.060791,0.078369,0.964600,-1.870229,-4.129771,-1.916031
307121299,0.052490,0.079834,0.946045,-2.030534,-4.404580,-1.931298
307133172,0.049316,0.074219,0.948486,-2.167939,-4.534351,-1.893130
307145042,0.050537,0.065430,0.950195,-1.641221,-4.335878,-1.961832
307156901,0.048828,0.090576,0.946777,-1.480916,-4.549618,-2.045802
307168767,0.065186,0.083008,0.962646,-2.816794,-4.458015,-2.091603
307180635,0.061768,0.076660,0.969971,-0.992366,-4.198473,-2.206107
307192502,0.053223,0.081299,0.940186,-1.938931,-3.549618,-1.977099
307204370,0.048828,0.078369,0.951904,-2.664122,-4.557252,-1.786260
307216242,0.054443,0.068115,0.962158,-2.145038,-4.824428,-1.946565
307228107,0.059326,0.087402,0.938477,-0.801527,-4.114504,-2.015267
307239968,0.061523,0.079102,0.958740,-3.511450,-3.679389,-1.793893
307251830,0.061279,0.062012,0.981934,-1.633588,-4.274809,-2.030534
307263702,0.053467,0.083496,0.945557,-1.122137,-4.061069,-1.877863
307275572,0.047119,0.076660,0.933350,-2.839695,-3.679389,-1.786260
307287436,0.054199,0.083496,0.977295,-2.320611,-4.625954,-2.007634
307299307,0.062256,0.082764,0.958984,-2.290076,-3.992366,-1.832061
307311180,0.054932,0.072266,0.951172,-2.328244,-3.267176,-1.503817
307323043,0.048340,0.071289,0.952881,-2.251908,-3.648855,-1.770992
307334904,0.058838,0.076172,0.959473,-2.129771,-4.793893,-1.862595
307346769,0.063232,0.081055,0.955322,-2.038168,-4.358778,-1.832061
307358641,0.048584,0.080566,0.962158,-2.251908,-3.290076,-1.877863
307370508,0.048828,0.076172,0.958740,-2.007634,-4.244275,-1.793893
307382371,0.055420,0.077881,0.942871,-2.297710,-4.564886,-1.938931
307394248,0.058105,0.073975,0.959717,-2.664122,-3.916031,-1.893130
307406113,0.058594,0.069336,0.957031,-2.160305,-3.946565,-1.908397
307417972,0.055420,0.080811,0.949951,-2.229008,-4.267176,-1.770992
307429837,0.051270,0.071777,0.958496,-2.152672,-4.007634,-1.763359
307441708,0.054443,0.072754,0.955566,-2.183206,-3.641221,-1.862595
307453576,0.056152,0.075195,0.947266,-2.160305,-3.977099,-1.916031
307465443,0.054932,0.075439,0.948486,-1.885496,-4.419847,-1.877863
307477315,0.054199,0.082764,0.953125,-2.183206,-3.916031,-1.885496
307489188,0.052979,0.078857,0.955811,-2.015267,-3.816794,-1.854962
307501055,0.057373,0.079834,0.955322,-2.053435,-4.381680,-1.603053
307512913,0.062256,0.071777,0.951904,-2.114504,-4.106870,-1.854962
307524777,0.057861,0.077637,0.965332,-1.923664,-4.167939,-2.083969
307536647,0.054932,0.079590,0.956787,-2.129771,-4.160306,-1.954198
307548509,0.055176,0.076660,0.957520,-2.145038,-4.412214,-1.931298
307560373,0.056396,0.075928,0.957520,-2.083969,-4.038168,-2.000000
307572242,0.056152,0.073730,0.954590,-2.053435,-4.068702,-2.015267
307584106,0.057617,0.079834,0.952393,-2.137405,-4.290076,-1.839695
307595968,0.055664,0.070801,0.953857,-1.946565,-4.396946,-2.015267
307607831,0.056641,0.076172,0.959717,-2.061069,-4.045802,-2.045802
307619703,0.055908,0.078613,0.956543,-2.053435,-4.122138,-1.847328
307631572,0.055908,0.084473,0.963135,-2.076336,-4.587786,-1.725191
307643436,0.054443,0.079834,0.945557,-2.412214,-4.259542,-1.839695
307655307,0.052246,0.074951,0.959229,-2.160305,-4.152672,-1.824427
307667180,0.055664,0.085205,0.964844,-2.198473,-4.450382,-2.091603
307679045,0.051270,0.072754,0.958740,-2.297710,-4.374046,-1.984733
307690904,0.063721,0.079102,0.959961,-2.381679,-4.442748,-1.946565
307702769,0.055176,0.072754,0.955078,-2.343511,-4.244275,-1.900763
307714640,0.061279,0.079346,0.947021,-1.984733,-4.427481,-1.732824
307726506,0.056641,0.077881,0.953369,-2.190840,-4.137404,-2.007634
307738372,0.055908,0.075684,0.957764,-2.259542,-4.137404,-1.977099
307750254,0.052490,0.075928,0.965576,-2.114504,-4.099236,-2.045802
307762115,0.061523,0.073486,0.956787,-2.129771,-4.396946,-1.931298
307773973,0.064453,0.072998,0.954102,-1.893130,-4.167939,-1.908397
307785837,0.046631,0.080078,0.959229,-2.114504,-4.587786,-1.916031
307797707,0.052490,0.076904,0.958984,-2.267176,-4.290076,-2.129771
307809576,0.064453,0.071777,0.960693,-2.076336,-3.992366,-2.099237
307821445,0.057373,0.075928,0.955078,-2.068702,-4.068702,-2.015267
307833322,0.058594,0.077393,0.956543,-2.190840,-4.267176,-1.809160
307845194,0.059082,0.076904,0.952881,-1.908397,-4.595420,-2.007634
307857057,0.058105,0.074951,0.962646,-2.106870,-3.824427,-1.801527
307868924,0.062988,0.078857,0.958984,-2.083969,-4.389313,-2.030534
307880798,0.054443,0.077881,0.961914,-2.045802,-4.114504,-1.992366
307892675,0.062012,0.079346,0.957275,-2.015267,-4.419847,-1.893130
307904546,0.054199,0.079834,0.955078,-2.213740,-4.038168,-1.793893
307916424,0.057861,0.075684,0.955566,-2.206107,-4.129771,-1.916031
307928296,0.054932,0.074951,0.957275,-2.167939,-4.183206,-2.038168
307940173,0.051758,0.072998,0.956055,-2.106870,-3.877863,-1.671756
307952045,0.052734,0.075439,0.960937,-2.007634,-4.053435,-1.854962
307963903,0.060791,0.074707,0.955811,-1.900763,-4.152672,-1.992366
307975769,0.057373,0.073975,0.964355,-2.038168,-4.068702,-1.877863
307987640,0.054443,0.073975,0.953857,-2.198473,-4.389313,-1.992366
307999505,0.058105,0.072510,0.945068,-2.022901,-4.267176,-2.076336
308011372,0.049561,0.076904,0.953125,-1.885496,-4.213740,-1.755725
308023246,0.055908,0.079102,0.954834,-1.969466,-3.847328,-1.992366
308035107,0.058105,0.073242,0.970947,-2.244275,-4.236641,-1.877863
308046968,0.056641,0.079590,0.956543,-2.068702,-4.351145,-2.091603
308058831,0.057617,0.076416,0.955566,-1.931298,-4.068702,-2.068702
308070704,0.060059,0.075195,0.963867,-2.022901,-4.106870,-1.893130
308082572,0.056396,0.072754,0.956787,-2.068702,-4.030534,-2.045802
308094435,0.056152,0.074707,0.957764,-1.877863,-3.916031,-1.900763
308106308,0.061279,0.081055,0.955566,-2.045802,-4.114504,-1.931298
308118179,0.054199,0.074707,0.961670,-1.870229,-4.190840,-1.770992
308130045,0.050049,0.073242,0.953613,-2.061069,-4.267176,-1.870229
308141906,0.051270,0.076416,0.956055,-2.045802,-3.931298,-1.740458
308153771,0.050049,0.071777,0.962891,-1.778626,-4.175572,-1.946565
308165640,0.056641,0.075928,0.955078,-2.229008,-4.297710,-2.030534
308177505,0.059326,0.079102,0.956787,-2.076336,-4.145038,-1.778626
308189372,0.059326,0.084229,0.951660,-2.114504,-4.251908,-1.786260
308201243,0.054932,0.081787,0.959229,-2.145038,-4.259542,-1.824427
308213107,0.056396,0.077637,0.959961,-2.106870,-4.412214,-1.954198
308224968,0.059570,0.077148,0.951416,-1.862595,-4.183206,-1.923664
308236830,0.051758,0.071045,0.958496,-2.122137,-4.045802,-1.916031
308248704,0.059570,0.080811,0.954346,-2.175573,-4.259542,-1.946565
308260571,0.054687,0.072754,0.957520,-2.114504,-4.259542,-1.893130
308272436,0.054932,0.071533,0.955078,-1.770992,-4.419847,-1.946565
308284307,0.058838,0.079346,0.962158,-2.251908,-3.931298,-1.847328
308296180,0.062012,0.064697,0.950684,-2.129771,-4.213740,-1.885496
308308043,0.052490,0.074219,0.948486,-1.977099,-4.175572,-1.916031
308319904,0.062012,0.079102,0.959229,-2.091603,-4.091603,-1.931298
308331769,0.054443,0.075684,0.955566,-1.931298,-4.152672,-1.984733
308343640,0.053223,0.075684,0.951416,-2.152672,-3.992366,-1.908397
308355506,0.056396,0.074951,0.956299,-1.977099,-4.183206,-1.900763
308367371,0.052246,0.074463,0.954834,-2.206107,-4.206107,-1.946565
308379242,0.057129,0.080078,0.953369,-1.954198,-4.145038,-1.877863
308391113,0.059082,0.080811,0.955078,-1.954198,-4.122138,-1.893130
308402972,0.046631,0.076904,0.959961,-2.053435,-4.335878,-1.961832
308414838,0.056396,0.077881,0.952393,-2.038168,-3.992366,-1.992366
308426713,0.058105,0.077148,0.946777,-2.221374,-4.198473,-1.961832
308438579,0.057129,0.072021,0.957764,-1.938931,-4.068702,-1.763359
308450445,0.055664,0.074463,0.952148,-1.786260,-4.396946,-1.847328
308462323,0.052490,0.076416,0.954834,-1.961832,-4.061069,-1.893130
308474194,0.052490,0.075928,0.963379,-1.801527,-4.000000,-1.923664
308486061,0.053467,0.070557,0.950928,-2.061069,-4.213740,-2.015267
308497930,0.053711,0.074219,0.954102,-2.015267,-4.206107,-1.885496
308509801,0.048340,0.079102,0.951660,-1.977099,-4.328244,-1.801527
308521674,0.056396,0.080811,0.956543,-2.022901,-4.038168,-2.083969
308533546,0.053711,0.073242,0.949707,-2.030534,-4.229008,-1.984733
308545424,0.057373,0.077148,0.969482,-1.954198,-4.038168,-1.893130
308557296,0.053955,0.072754,0.956543,-1.992366,-4.160306,-1.923664
308569171,0.060791,0.079346,0.958252,-2.038168,-4.335878,-1.923664
308581038,0.051514,0.077637,0.952881,-2.175573,-4.053435,-1.931298
308592899,0.060791,0.081787,0.957764,-1.900763,-4.320611,-1.900763
308604767,0.049805,0.077393,0.952881,-1.992366,-4.175572,-2.053435
308616641,0.063721,0.081787,0.946533,-1.946565,-4.190840,-1.763359
308628505,0.054199,0.077148,0.955322,-2.045802,-4.122138,-1.893130
308640372,0.059814,0.075928,0.942139,-2.236641,-4.099236,-2.068702
308652242,0.052979,0.080322,0.959717,-1.923664,-4.229008,-1.732824
308664113,0.051514,0.080322,0.954590,-2.068702,-4.068702,-1.946565
308675971,0.051514,0.077148,0.960205,-1.854962,-4.068702,-1.740458
308687837,0.058350,0.079590,0.947021,-2.091603,-4.229008,-2.061069
308699707,0.056396,0.075684,0.955566,-2.129771,-4.129771,-1.885496
308711576,0.052979,0.080566,0.949707,-2.244275,-4.160306,-1.916031
308723442,0.055664,0.073486,0.950439,-2.152672,-4.251908,-1.977099
308735311,0.054199,0.074707,0.957764,-2.015267,-4.152672,-2.007634
308747180,0.051025,0.074463,0.958496,-1.954198,-4.190840,-1.824427
308759042,0.055176,0.071045,0.956299,-2.076336,-3.946565,-2.068702
308770901,0.053711,0.077881,0.965332,-1.938931,-4.114504,-1.946565
308782768,0.047119,0.074219,0.956787,-1.931298,-4.106870,-2.076336
308794641,0.056641,0.080322,0.948730,-2.137405,-4.221374,-1.732824
308806505,0.055664,0.076172,0.952637,-2.083969,-4.190840,-1.946565
308818372,0.061279,0.072510,0.955811,-2.091603,-4.335878,-1.961832
308830254,0.051025,0.079346,0.955078,-2.114504,-4.083970,-1.854962
308842115,0.054443,0.074951,0.958740,-2.007634,-4.053435,-1.969466
308853972,0.054199,0.073730,0.956787,-2.068702,-4.221374,-1.900763
308865837,0.056396,0.074951,0.951416,-2.091603,-4.213740,-2.061069
308877707,0.059326,0.078613,0.947998,-1.969466,-4.137404,-1.877863
308889576,0.056152,0.082031,0.955566,-2.053435,-4.167939,-1.832061
308901442,0.055420,0.074951,0.958252,-2.137405,-4.236641,-1.946565
308913311,0.051025,0.076904,0.960937,-2.038168,-4.259542,-1.687023
308925180,0.059326,0.077393,0.951660,-1.961832,-4.015267,-1.687023
308937042,0.054932,0.079346,0.948242,-2.267176,-4.190840,-1.847328
308948904,0.057129,0.077393,0.953857,-2.206107,-4.221374,-1.984733
308960769,0.060059,0.072266,0.952881,-2.030534,-4.152672,-2.007634
308972641,0.054932,0.081543,0.951416,-2.000000,-4.374046,-2.129771
308984505,0.060791,0.070801,0.956543,-2.007634,-3.954198,-1.916031
308996371,0.061279,0.077148,0.957275,-1.977099,-4.160306,-2.045802
309008242,0.060059,0.080078,0.948730,-2.122137,-4.099236,-1.770992
309020106,0.056641,0.071777,0.954590,-1.954198,-4.305344,-2.015267
309031968,0.057617,0.075928,0.956055,-2.175573,-4.290076,-2.091603
309043831,0.058105,0.073975,0.951416,-2.122137,-4.244275,-1.854962
309055704,0.061523,0.072021,0.955078,-1.954198,-4.221374,-2.053435
309067572,0.060791,0.070801,0.959717,-1.938931,-4.114504,-2.000000
309079436,0.056641,0.072510,0.958252,-1.969466,-4.129771,-1.786260
309091307,0.051758,0.078369,0.955078,-2.007634,-4.022901,-1.984733
309103179,0.056152,0.074219,0.958984,-2.259542,-4.091603,-1.847328
309115045,0.055176,0.080811,0.956543,-2.030534,-4.274809,-1.977099
309126904,0.055908,0.073975,0.956787,-2.083969,-4.053435,-1.740458
309138769,0.055420,0.079346,0.946777,-2.053435,-4.305344,-1.877863
309150640,0.055176,0.083252,0.954834,-2.290076,-4.351145,-1.900763
309162505,0.056885,0.074707,0.965576,-2.038168,-4.297710,-1.900763
309174371,0.056396,0.082764,0.956787,-2.076336,-4.206107,-1.969466
309186246,0.061523,0.076172,0.954102,-2.274809,-4.137404,-2.053435
309198107,0.058594,0.074219,0.963379,-2.160305,-4.145038,-1.809160
309209968,0.057373,0.080078,0.962158,-2.297710,-4.076336,-1.916031
309221831,0.056396,0.076904,0.954346,-2.251908,-4.282443,-2.022901
309233703,0.053467,0.073975,0.961914,-2.206107,-4.183206,-2.030534
309245572,0.057129,0.074707,0.956299,-2.114504,-4.244275,-1.870229
309257436,0.061768,0.076660,0.947998,-2.099237,-4.129771,-1.893130
309269307,0.062988,0.076660,0.953613,-1.862595,-4.274809,-1.900763
309281180,0.058594,0.070801,0.953369,-1.793893,-3.984733,-1.954198
309293045,0.054199,0.075684,0.957520,-2.083969,-3.946565,-2.030534
309304903,0.056641,0.077148,0.956787,-1.923664,-4.076336,-1.893130
309316771,0.052490,0.077393,0.961914,-1.854962,-4.412214,-2.030534
309328641,0.058105,0.074951,0.947021,-1.946565,-4.137404,-2.045802
309340504,0.056152,0.083008,0.952148,-1.946565,-4.412214,-1.931298
309352370,0.061035,0.079590,0.962158,-2.091603,-4.229008,-1.854962
309364241,0.058105,0.074219,0.957764,-2.152672,-4.106870,-1.694656
309376107,0.058105,0.076660,0.963867,-2.053435,-4.221374,-2.038168
309387968,0.059814,0.075439,0.956055,-2.122137,-4.396946,-2.000000
309399830,0.054687,0.069580,0.954102,-2.145038,-4.351145,-1.900763
309411703,0.060547,0.076172,0.963135,-2.022901,-4.167939,-2.000000
309423571,0.056396,0.078125,0.958008,-1.862595,-4.083970,-1.931298
309435436,0.056396,0.074951,0.957520,-2.137405,-4.251908,-1.954198
309447307,0.058594,0.076172,0.952881,-2.129771,-4.282443,-2.076336
309459180,0.055176,0.078369,0.955811,-2.206107,-4.022901,-1.732824
309471042,0.052490,0.076172,0.946045,-2.152672,-4.206107,-2.015267
309482901,0.058350,0.073486,0.953613,-2.061069,-4.190840,-1.923664
309494767,0.057617,0.074951,0.951904,-1.839695,-4.213740,-1.847328
309506640,0.056641,0.073486,0.957031,-1.900763,-3.992366,-1.854962
309518506,0.053711,0.079834,0.962891,-1.893130,-4.091603,-1.900763
309530371,0.059570,0.079834,0.956543,-1.870229,-4.114504,-2.022901
309542243,0.061035,0.082520,0.950684,-2.114504,-4.160306,-2.000000
309554106,0.051758,0.081787,0.954102,-2.038168,-4.015267,-1.816794
309565967,0.054443,0.078369,0.948486,-2.099237,-4.038168,-1.854962
309577831,0.050049,0.076172,0.953369,-2.290076,-4.106870,-1.839695
309589706,0.055908,0.068115,0.959961,-2.190840,-4.167939,-1.969466
309601572,0.059570,0.068604,0.951172,-2.160305,-4.160306,-1.916031
309613435,0.055176,0.076172,0.952637,-2.038168,-4.106870,-1.923664
309625308,0.056396,0.072266,0.960693,-1.900763,-4.244275,-1.877863
309637179,0.056396,0.075684,0.958252,-1.870229,-4.175572,-1.854962
309649043,0.063477,0.070068,0.958252,-2.099237,-3.908397,-1.931298
309660904,0.055176,0.089844,0.948486,-2.007634,-3.954198,-1.854962
309672769,0.059082,0.077393,0.954102,-1.977099,-4.328244,-1.824427
309684640,0.054687,0.072266,0.954346,-1.961832,-4.038168,-2.022901
309696505,0.054199,0.080078,0.961426,-2.175573,-4.015267,-2.061069
309708371,0.060059,0.076904,0.965088,-2.183206,-4.259542,-1.954198
309720242,0.053467,0.078125,0.960937,-2.251908,-4.312977,-1.923664
309732107,0.051758,0.072754,0.955322,-2.022901,-4.213740,-1.778626
309743968,0.055908,0.072266,0.949707,-2.068702,-4.145038,-1.961832
309755831,0.056641,0.075195,0.961670,-2.282443,-4.282443,-1.900763
309767704,0.063721,0.073242,0.950439,-1.885496,-4.053435,-1.862595
309779572,0.052246,0.075928,0.949219,-1.984733,-4.183206,-1.877863
309791436,0.051758,0.067871,0.958008,-1.984733,-4.000000,-1.839695
309803311,0.055420,0.071777,0.951416,-1.908397,-4.190840,-1.977099
309815180,0.056885,0.071533,0.951172,-1.900763,-3.977099,-1.961832
309827042,0.055664,0.076416,0.964111,-2.206107,-4.091603,-1.938931
309838903,0.052490,0.073242,0.956299,-2.022901,-4.251908,-1.755725
309850769,0.055176,0.073486,0.951416,-1.900763,-4.106870,-1.893130
309862641,0.050049,0.077393,0.958496,-2.015267,-4.083970,-1.786260
309874505,0.061768,0.077148,0.956299,-2.320611,-4.267176,-2.007634
309886371,0.057617,0.072266,0.951416,-2.167939,-4.198473,-1.954198
309898245,0.049561,0.071533,0.962158,-2.175573,-4.030534,-1.938931
309910107,0.057617,0.074951,0.954102,-2.076336,-4.343512,-1.954198
309921970,0.051758,0.074951,0.959229,-1.893130,-4.374046,-1.916031
309933834,0.058594,0.071045,0.955566,-1.923664,-4.229008,-1.977099
309945707,0.060303,0.073242,0.951904,-1.816794,-4.053435,-1.854962
309957572,0.050781,0.078857,0.952637,-1.992366,-4.320611,-2.068702
309969435,0.057373,0.070068,0.953369,-1.847328,-4.236641,-2.076336
309981307,0.056885,0.086182,0.952637,-1.435115,-4.320611,-2.290076
309993180,0.061768,0.074463,0.973877,-2.694656,-4.290076,-2.038168
310005042,0.062012,0.069824,0.966309,-1.503817,-3.923664,-1.992366
310016904,0.047852,0.079590,0.947998,-1.885496,-3.488550,-2.152672
310028769,0.051514,0.079346,0.947510,-2.213740,-4.824428,-1.847328
310040640,0.060791,0.080811,0.970215,-2.167939,-5.007634,-1.870229
310052505,0.056641,0.079102,0.957764,-1.770992,-3.870229,-1.839695
310064372,0.051270,0.076416,0.955811,-2.259542,-3.587786,-1.969466
310076254,0.051514,0.073486,0.954590,-1.709924,-4.419847,-1.969466
310088115,0.059814,0.080078,0.941895,-1.969466,-4.511450,-2.061069
310099972,0.053223,0.077148,0.960205,-1.923664,-3.885496,-2.022901
310111839,0.053223,0.073975,0.959473,-1.847328,-4.343512,-1.969466
310123713,0.055420,0.073730,0.955566,-2.000000,-4.152672,-2.045802
310135572,0.060059,0.076660,0.958008,-2.160305,-3.832061,-1.908397
310147435,0.057129,0.070312,0.949463,-2.106870,-4.152672,-1.908397
310159308,0.052979,0.073730,0.954834,-2.305344,-4.610687,-1.732824
310171179,0.062012,0.071777,0.947510,-2.419847,-4.106870,-1.816794
310183042,0.052979,0.067627,0.959961,-1.893130,-4.000000,-2.022901
310194902,0.049805,0.072754,0.947510,-2.038168,-3.877863,-1.862595
310206768,0.054443,0.077881,0.950195,-2.045802,-4.435114,-1.847328
310218640,0.052002,0.073975,0.955078,-2.099237,-4.152672,-1.885496
310230505,0.063721,0.080322,0.959229,-2.068702,-4.137404,-1.977099
310242370,0.053223,0.072754,0.957520,-1.984733,-4.465649,-1.938931
310254242,0.051514,0.076416,0.953125,-1.870229,-4.190840,-1.938931
310266107,0.057617,0.078125,0.954834,-2.022901,-3.908397,-1.916031
310277968,0.051514,0.081543,0.944092,-1.908397,-4.122138,-1.763359
310289831,0.055664,0.078125,0.954102,-2.068702,-4.297710,-1.923664
310301703,0.056641,0.077637,0.959473,-2.274809,-4.221374,-1.954198
310313571,0.053223,0.068115,0.948486,-2.129771,-3.885496,-1.862595
310325436,0.052490,0.072021,0.963623,-2.053435,-4.358778,-1.961832
310337308,0.061035,0.068604,0.955322,-2.114504,-3.984733,-2.053435
310349180,0.055908,0.074951,0.950928,-2.045802,-4.244275,-1.900763
310361045,0.057617,0.078125,0.955566,-2.167939,-4.229008,-1.992366
310372905,0.052246,0.075928,0.963135,-2.160305,-4.351145,-2.045802
310384769,0.060059,0.069092,0.949707,-1.900763,-4.076336,-1.816794
310396640,0.055664,0.073486,0.958740,-1.931298,-4.083970,-1.755725
310408505,0.061279,0.078613,0.957275,-1.877863,-4.221374,-1.885496
310420373,0.052979,0.077637,0.953125,-2.045802,-4.213740,-2.022901
310432246,0.060791,0.079346,0.955566,-2.175573,-3.870229,-1.946565
310444113,0.052002,0.076904,0.954590,-2.000000,-4.122138,-2.038168
310455971,0.048096,0.078125,0.958496,-1.954198,-4.312977,-1.885496
310467834,0.052002,0.080566,0.962891,-2.267176,-4.137404,-1.908397
310479705,0.052734,0.073975,0.955078,-2.083969,-4.259542,-1.809160
310491576,0.054443,0.077393,0.956299,-2.007634,-4.038168,-1.893130
310503442,0.053955,0.078857,0.958740,-2.114504,-4.152672,-1.938931
310515311,0.054687,0.075928,0.957275,-1.984733,-3.847328,-1.923664
310527189,0.062256,0.074707,0.949707,-2.236641,-4.282443,-1.946565
310539055,0.055908,0.076416,0.947998,-2.152672,-4.274809,-1.931298
310550913,0.059814,0.072266,0.949463,-2.137405,-3.946565,-2.022901
310562779,0.049805,0.072998,0.959229,-2.068702,-4.259542,-1.778626
310574647,0.055664,0.073486,0.955811,-1.877863,-4.259542,-2.068702
310586509,0.053711,0.078125,0.950928,-2.068702,-4.038168,-1.885496
310598372,0.053955,0.077148,0.954346,-2.122137,-4.145038,-2.022901
310610246,0.057129,0.073730,0.958984,-2.213740,-4.374046,-1.908397
310622107,0.057129,0.080566,0.959717,-2.244275,-4.450382,-1.916031
310633970,0.059082,0.073975,0.956299,-2.236641,-4.000000,-1.801527
310645833,0.054443,0.074951,0.955322,-2.015267,-4.351145,-1.885496
310657706,0.054199,0.067139,0.955078,-2.000000,-4.175572,-1.824427
310669576,0.059326,0.077637,0.955566,-1.961832,-4.068702,-2.000000
310681441,0.050781,0.082520,0.952637,-2.099237,-4.007634,-1.877863
310693309,0.053955,0.070312,0.950439,-2.251908,-4.091603,-2.045802
310705180,0.060791,0.079346,0.953857,-2.267176,-4.297710,-1.954198
310717045,0.056152,0.076172,0.960205,-2.167939,-4.167939,-1.954198
310728905,0.056641,0.076416,0.949219,-2.091603,-4.167939,-1.900763
310740770,0.050293,0.069824,0.948975,-2.030534,-4.045802,-1.938931
310752640,0.062744,0.074219,0.956543,-2.114504,-4.061069,-1.969466
310764506,0.060059,0.076416,0.950928,-2.137405,-4.190840,-1.885496
310776371,0.052002,0.077393,0.947021,-2.045802,-4.045802,-1.900763
310788239,0.052490,0.079590,0.955078,-2.068702,-4.114504,-1.885496
310800107,0.044678,0.083252,0.955078,-1.931298,-4.053435,-1.885496
310811970,0.048096,0.074219,0.955322,-2.106870,-4.290076,-1.900763
310823833,0.059814,0.071045,0.957764,-2.114504,-4.236641,-1.984733
310835706,0.057129,0.071045,0.963379,-2.175573,-4.068702,-1.938931
310847572,0.058350,0.076904,0.945068,-2.007634,-4.328244,-1.702290
310859435,0.059082,0.076904,0.958984,-2.206107,-3.977099,-1.877863
310871311,0.058838,0.076904,0.943604,-1.923664,-4.381680,-2.038168
310883180,0.060547,0.078613,0.949707,-1.862595,-4.076336,-1.816794
310895045,0.062744,0.075195,0.951416,-2.061069,-4.305344,-1.984733
310906904,0.058350,0.073486,0.960449,-1.839695,-4.335878,-2.038168
310918769,0.052490,0.075195,0.946777,-2.206107,-4.099236,-1.969466
310930641,0.054932,0.079590,0.959473,-2.015267,-4.145038,-1.931298
310942506,0.054932,0.080811,0.958496,-2.038168,-4.404580,-2.068702
310954371,0.048096,0.076660,0.953369,-2.038168,-4.167939,-2.007634
310966242,0.058350,0.072266,0.953613,-2.114504,-4.343512,-2.007634
310978107,0.051270,0.073242,0.951416,-2.000000,-4.183206,-1.755725
310989968,0.054932,0.073486,0.954346,-1.748092,-4.282443,-2.000000
311001831,0.056641,0.076660,0.961670,-2.183206,-4.007634,-1.793893
311013704,0.057861,0.073486,0.947754,-2.183206,-3.900763,-1.954198
311025576,0.058838,0.075439,0.953613,-1.908397,-4.358778,-1.961832
311037444,0.059814,0.072754,0.944824,-1.977099,-4.000000,-1.908397
311049322,0.052490,0.077393,0.947998,-1.984733,-4.236641,-1.893130
311061194,0.049561,0.074463,0.951660,-2.045802,-4.274809,-1.938931
311073061,0.058350,0.071533,0.955566,-2.083969,-4.091603,-1.954198
311084932,0.058350,0.080078,0.951660,-2.068702,-4.496183,-1.870229
311096812,0.056641,0.077148,0.950684,-2.000000,-4.068702,-1.916031
311108691,0.055908,0.078369,0.954346,-1.893130,-4.305344,-1.954198
311120565,0.051270,0.069824,0.954834,-2.053435,-4.045802,-2.068702
311132433,0.056152,0.077637,0.958252,-1.977099,-4.175572,-1.931298
311144308,0.047363,0.077881,0.947998,-1.961832,-4.389313,-2.076336
311156180,0.062988,0.068359,0.959961,-2.190840,-3.977099,-1.969466
311168042,0.058838,0.083740,0.953125,-2.137405,-4.236641,-1.916031
311179901,0.055176,0.078369,0.951660,-2.015267,-4.015267,-2.106870
311191767,0.059082,0.077637,0.947266,-2.114504,-4.198473,-1.862595
311203636,0.054199,0.082031,0.953857,-2.167939,-4.091603,-1.969466
311215502,0.052734,0.076660,0.961182,-2.076336,-4.129771,-1.977099
311227367,0.059570,0.072510,0.958252,-2.091603,-4.061069,-1.870229
311239240,0.054443,0.077148,0.952393,-2.022901,-4.282443,-1.977099
311251106,0.052979,0.070068,0.952148,-1.977099,-4.267176,-1.916031
311262967,0.048340,0.078369,0.956055,-2.030534,-4.290076,-1.854962
311274831,0.062988,0.077881,0.954102,-2.076336,-4.083970,-1.961832
311286703,0.050537,0.067871,0.954102,-2.015267,-4.122138,-1.862595
311298571,0.053467,0.080566,0.959473,-2.129771,-4.145038,-1.816794
311310436,0.051758,0.080566,0.958740,-2.160305,-4.335878,-1.786260
311322307,0.056885,0.069092,0.956055,-2.053435,-4.068702,-1.893130
311334178,0.054199,0.075439,0.956055,-2.160305,-4.274809,-1.816794
311346042,0.053223,0.077393,0.958740,-1.954198,-4.267176,-1.984733
311357904,0.055664,0.081787,0.961182,-2.076336,-4.000000,-2.000000
311369769,0.058350,0.077881,0.950684,-2.167939,-4.274809,-1.923664
311381640,0.058350,0.077881,0.958008,-2.045802,-4.274809,-1.923664
311393505,0.059326,0.075439,0.958496,-2.068702,-4.000000,-2.022901
311405370,0.053711,0.074707,0.952881,-2.099237,-4.114504,-2.076336
311417240,0.054932,0.075195,0.958008,-2.091603,-3.969466,-1.885496
311429107,0.056641,0.075928,0.957764,-2.099237,-4.328244,-2.022901
311440968,0.050537,0.077637,0.950684,-2.076336,-4.206107,-2.030534
311452831,0.055420,0.071777,0.950684,-2.137405,-4.175572,-2.190840
311464704,0.053955,0.076172,0.955811,-2.038168,-4.251908,-2.022901
311476572,0.052734,0.076904,0.958008,-2.137405,-4.015267,-1.893130
311488436,0.052490,0.076904,0.959229,-1.816794,-4.114504,-1.977099
311500308,0.054687,0.079346,0.953857,-2.068702,-4.129771,-1.992366
311512179,0.058350,0.076416,0.962646,-2.045802,-4.290076,-1.900763
311524042,0.050049,0.079346,0.960937,-2.206107,-4.076336,-2.076336
311535902,0.053711,0.073730,0.965576,-2.015267,-4.190840,-1.839695
311547768,0.056152,0.073486,0.950195,-1.931298,-3.893130,-1.908397
311559641,0.057617,0.081543,0.952393,-2.038168,-3.893130,-1.938931
311571506,0.059570,0.075439,0.951660,-2.022901,-4.328244,-2.068702
311583371,0.053467,0.074219,0.959717,-2.167939,-4.145038,-1.916031
311595245,0.054687,0.081543,0.947510,-2.083969,-4.145038,-1.916031
311607107,0.054687,0.084473,0.965820,-2.122137,-4.282443,-1.870229
311618970,0.062256,0.068848,0.962158,-2.022901,-4.320611,-1.832061
311630833,0.051270,0.071777,0.952881,-1.908397,-4.175572,-1.786260
311642705,0.058105,0.072754,0.962158,-1.946565,-3.961832,-1.908397
311654572,0.058105,0.074707,0.954102,-2.206107,-4.145038,-1.877863
311666436,0.053711,0.075439,0.962891,-2.137405,-4.190840,-1.992366
311678307,0.058594,0.074707,0.947021,-1.946565,-4.122138,-1.870229
311690179,0.052490,0.073486,0.953125,-2.129771,-4.213740,-1.732824
311702042,0.053223,0.074219,0.951416,-2.213740,-4.099236,-1.885496
311713901,0.055176,0.074707,0.949219,-2.022901,-3.862595,-1.977099
311725768,0.056396,0.080566,0.956055,-2.045802,-4.206107,-2.000000
311737636,0.056885,0.078369,0.948242,-1.992366,-4.038168,-1.900763
311749502,0.055176,0.067139,0.960205,-1.984733,-4.305344,-1.824427
311761370,0.054932,0.075928,0.952637,-1.954198,-3.954198,-2.030534
311773242,0.068848,0.076172,0.952148,-2.068702,-4.244275,-2.038168
311785106,0.054199,0.073730,0.959229,-2.328244,-4.206107,-1.946565
311796968,0.062500,0.083496,0.959961,-2.061069,-4.038168,-2.022901
311808830,0.052490,0.081055,0.958740,-2.030534,-4.297710,-1.770992
311820703,0.056885,0.071533,0.956543,-2.152672,-4.038168,-1.870229
311832571,0.061279,0.076660,0.950928,-2.053435,-4.175572,-1.816794
311844436,0.057861,0.074463,0.950195,-2.190840,-3.786260,-2.030534
311856311,0.063477,0.076904,0.957275,-2.038168,-4.007634,-1.900763
311868179,0.049316,0.077148,0.958984,-2.122137,-4.122138,-1.900763
311880045,0.054199,0.073730,0.958740,-2.053435,-4.190840,-1.732824
311891904,0.058105,0.078369,0.954834,-2.022901,-4.160306,-2.053435
311903768,0.051758,0.074951,0.956055,-2.152672,-4.267176,-2.152672
311915641,0.058594,0.079834,0.953125,-1.969466,-4.251908,-2.022901
311927505,0.051025,0.072021,0.956055,-2.061069,-4.213740,-1.938931
311939370,0.059570,0.074951,0.958496,-1.778626,-4.114504,-1.793893
311951243,0.059570,0.073975,0.953369,-2.030534,-4.297710,-1.839695
311963106,0.055908,0.074463,0.957764,-1.946565,-4.038168,-2.061069
311974968,0.052246,0.075195,0.962646,-2.022901,-3.946565,-1.992366
311986831,0.053711,0.076660,0.950684,-2.213740,-4.183206,-1.977099
311998704,0.057617,0.073242,0.952637,-2.152672,-3.923664,-1.954198
312010572,0.052490,0.071533,0.956055,-1.870229,-4.297710,-1.900763
312022436,0.061035,0.075439,0.951660,-2.145038,-4.206107,-1.961832
312034308,0.054932,0.073975,0.955566,-2.206107,-4.122138,-2.022901
312046180,0.053467,0.075928,0.947998,-1.908397,-4.114504,-1.931298
312058043,0.057861,0.073486,0.956787,-2.106870,-4.236641,-1.847328
312069904,0.057373,0.075439,0.958008,-1.923664,-4.335878,-2.091603
312081769,0.062988,0.082764,0.949951,-2.145038,-4.305344,-1.984733
312093640,0.053711,0.071533,0.958008,-1.992366,-4.328244,-1.931298
312105505,0.048584,0.076660,0.955811,-2.122137,-4.389313,-1.824427
312117373,0.056885,0.075195,0.954346,-2.145038,-4.305344,-2.007634
312129254,0.056152,0.078857,0.954346,-2.099237,-4.137404,-2.007634
312141115,0.055420,0.072998,0.945557,-2.114504,-4.076336,-1.954198
312152972,0.054199,0.079834,0.958740,-2.129771,-4.221374,-2.030534
312164836,0.059082,0.076172,0.947754,-1.908397,-4.106870,-2.091603
312176708,0.055908,0.066895,0.952148,-1.938931,-4.259542,-2.000000
312188572,0.058838,0.078613,0.960693,-2.328244,-4.305344,-1.847328
312200436,0.059082,0.078613,0.965576,-2.152672,-3.931298,-2.038168
312212311,0.055420,0.079834,0.959229,-1.809160,-4.206107,-1.824427
312224180,0.053223,0.076172,0.953857,-2.053435,-4.320611,-2.038168
312236045,0.057373,0.070068,0.949951,-2.106870,-4.061069,-1.992366
312247904,0.061279,0.074707,0.951172,-2.183206,-4.198473,-2.015267
312259769,0.056152,0.071533,0.956299,-2.061069,-4.129771,-1.923664
312271640,0.051514,0.074707,0.961914,-2.122137,-4.480916,-1.938931
312283505,0.058838,0.076172,0.953369,-1.908397,-3.946565,-2.030534
312295372,0.058105,0.075439,0.947266,-1.900763,-4.083970,-1.984733
312307246,0.058838,0.081055,0.956055,-2.137405,-4.229008,-2.083969
312319107,0.060547,0.079834,0.952637,-2.122137,-4.190840,-2.053435
312330968,0.053467,0.073730,0.964111,-2.152672,-4.106870,-1.793893
312342831,0.061523,0.073242,0.956055,-2.229008,-3.938931,-1.816794
312354703,0.051025,0.076904,0.949219,-1.992366,-4.335878,-1.961832
312366571,0.055908,0.074463,0.954590,-2.053435,-4.366412,-1.854962
312378436,0.057373,0.077393,0.954590,-2.137405,-4.137404,-1.916031
312390307,0.057129,0.077637,0.952393,-2.305344,-4.045802,-1.885496
312402179,0.055420,0.077148,0.953857,-2.312977,-4.221374,-1.961832
312414045,0.064453,0.077148,0.948242,-1.977099,-4.213740,-2.030534
312425903,0.058350,0.075928,0.957031,-2.061069,-3.954198,-1.923664
312437767,0.052979,0.074707,0.956055,-2.030534,-4.083970,-1.908397
312449635,0.053711,0.073486,0.959473,-2.106870,-4.114504,-1.839695
312461502,0.056641,0.074707,0.958984,-2.076336,-3.832061,-1.938931
312473370,0.053711,0.073486,0.953369,-1.977099,-4.251908,-1.824427
312485242,0.057129,0.076172,0.953613,-1.931298,-4.137404,-1.938931
312497107,0.054687,0.076172,0.956543,-1.877863,-4.152672,-1.977099
312508968,0.055176,0.079102,0.948242,-2.129771,-4.068702,-1.786260
312520831,0.059814,0.078857,0.958252,-2.175573,-4.374046,-1.908397
312532704,0.059326,0.074463,0.955811,-2.045802,-4.236641,-1.847328
312544571,0.060791,0.069092,0.954346,-2.091603,-4.244275,-1.862595
312556436,0.058350,0.071289,0.961426,-1.946565,-4.435114,-1.816794
312568307,0.054932,0.077393,0.954102,-2.061069,-4.175572,-1.961832
312580179,0.055176,0.079102,0.954834,-2.045802,-4.145038,-2.061069
312592045,0.052246,0.070312,0.956543,-2.167939,-4.244275,-1.923664
312603905,0.054199,0.078613,0.955566,-2.389313,-4.183206,-2.099237
312615770,0.052734,0.074219,0.953857,-2.045802,-4.091603,-2.038168
312627641,0.055176,0.082764,0.958740,-2.061069,-4.167939,-1.732824
312639506,0.061523,0.075439,0.952393,-2.091603,-4.045802,-1.900763
312651371,0.061035,0.075928,0.957764,-2.099237,-4.183206,-2.030534
312663242,0.054443,0.074463,0.944824,-2.229008,-4.213740,-1.862595
312675107,0.057861,0.076172,0.958496,-2.022901,-4.274809,-1.862595
312686970,0.056396,0.079346,0.957031,-2.015267,-4.267176,-2.061069
312698833,0.053711,0.081055,0.954102,-1.862595,-4.160306,-1.977099
312710706,0.055176,0.076416,0.956055,-2.038168,-4.335878,-1.755725
312722576,0.057861,0.075684,0.958496,-1.969466,-4.160306,-1.801527
312734444,0.059326,0.078857,0.961670,-2.015267,-4.114504,-1.847328
312746316,0.062012,0.076904,0.953125,-2.152672,-4.145038,-2.007634
312758189,0.056641,0.079834,0.958740,-2.076336,-4.114504,-1.916031
312770057,0.050293,0.079346,0.958496,-2.114504,-4.152672,-1.732824
312781916,0.055176,0.071289,0.946533,-1.877863,-4.305344,-1.893130
312793783,0.046875,0.076172,0.947266,-2.022901,-4.114504,-1.969466
312805647,0.053711,0.073242,0.956543,-2.022901,-4.175572,-2.122137
312817510,0.053955,0.075439,0.953369,-2.145038,-4.290076,-1.870229
312829373,0.052490,0.075439,0.947754,-1.946565,-3.961832,-1.992366
312841246,0.059570,0.073486,0.955566,-2.145038,-4.351145,-2.114504
312853113,0.055420,0.084961,0.961670,-1.992366,-4.061069,-1.961832
312864972,0.060791,0.080078,0.941895,-2.045802,-4.137404,-1.977099
312876834,0.063965,0.076660,0.961182,-2.175573,-4.305344,-1.847328
312888707,0.059082,0.073242,0.959717,-2.030534,-4.038168,-1.923664
312900576,0.054199,0.080078,0.956299,-2.122137,-4.114504,-2.099237
312912442,0.052979,0.074219,0.956787,-2.122137,-4.007634,-1.839695
312924311,0.057861,0.072754,0.952148,-2.145038,-4.175572,-1.801527
312936188,0.057861,0.074707,0.957275,-2.045802,-4.259542,-1.816794
312948047,0.051758,0.081055,0.950684,-2.000000,-4.015267,-2.007634
312959906,0.054443,0.071045,0.953369,-2.030534,-4.129771,-1.763359
312971775,0.050049,0.077148,0.947754,-2.152672,-4.038168,-1.969466
312983647,0.060059,0.070068,0.954346,-2.114504,-4.114504,-1.946565
312995508,0.052734,0.074463,0.964111,-1.885496,-4.114504,-2.000000
313007372,0.052979,0.077393,0.959229,-2.061069,-4.175572,-2.000000
313019245,0.051270,0.078857,0.955078,-2.129771,-4.244275,-1.916031
313031107,0.051270,0.066895,0.964355,-1.954198,-4.175572,-1.954198
313042968,0.057617,0.078125,0.953613,-2.091603,-4.015267,-1.778626
313054831,0.053223,0.073242,0.950439,-2.167939,-4.267176,-1.938931
313066704,0.058838,0.076660,0.953125,-2.030534,-4.221374,-2.061069
313078572,0.053467,0.077393,0.965332,-2.122137,-4.053435,-1.977099
313090436,0.051025,0.075684,0.950928,-2.137405,-4.045802,-1.847328
313102307,0.059570,0.081055,0.950439,-2.351145,-4.458015,-1.969466
313114178,0.053711,0.072754,0.946533,-2.045802,-3.938931,-2.007634
313126045,0.053955,0.077637,0.944824,-2.030534,-4.328244,-1.877863
313137903,0.058105,0.077148,0.957520,-1.916031,-4.374046,-1.900763
313149767,0.053223,0.074219,0.954102,-2.038168,-4.061069,-1.977099
313161641,0.056885,0.076904,0.951660,-2.022901,-4.358778,-1.832061
313173506,0.054932,0.077393,0.953125,-1.984733,-4.206107,-2.145038
313185371,0.049316,0.076660,0.961182,-1.977099,-4.175572,-1.900763
313197243,0.055176,0.073242,0.952148,-1.946565,-4.083970,-1.931298
313209113,0.050537,0.075195,0.945068,-2.190840,-4.099236,-1.877863
313220972,0.053955,0.079346,0.952637,-1.916031,-4.244275,-2.038168
313232837,0.054932,0.075439,0.956055,-2.091603,-4.152672,-1.839695
313244710,0.061523,0.074951,0.965088,-2.122137,-4.160306,-1.984733
313256572,0.053711,0.081055,0.963135,-2.190840,-4.328244,-1.946565
313268436,0.049561,0.072998,0.947754,-1.717557,-3.709924,-1.908397
313280307,0.065918,0.074219,0.951904,-1.938931,-3.984733,-1.877863
313292180,0.047607,0.076904,0.969971,-2.045802,-4.389313,-1.824427
313304045,0.056641,0.077393,0.953857,-2.061069,-4.137404,-1.862595
313315904,0.062256,0.071533,0.947998,-2.022901,-4.114504,-1.847328
313327769,0.060547,0.076416,0.960205,-1.984733,-4.053435,-1.961832
313339640,0.053711,0.081787,0.957275,-1.992366,-4.122138,-1.877863
313351507,0.056885,0.073975,0.947754,-2.114504,-3.877863,-1.954198
313363374,0.065186,0.077637,0.953613,-2.000000,-4.053435,-2.000000
313375245,0.050781,0.079102,0.964844,-1.862595,-4.122138,-1.748092
313387113,0.056641,0.070312,0.957520,-2.137405,-3.961832,-1.916031
313398972,0.055176,0.068359,0.949219,-2.000000,-4.297710,-1.938931
313410835,0.059082,0.076904,0.950684,-2.183206,-4.053435,-1.877863
313422706,0.059082,0.084961,0.961914,-1.961832,-4.259542,-1.885496
313434572,0.045654,0.072021,0.955078,-2.198473,-4.045802,-2.083969
313446436,0.061768,0.067627,0.954346,-1.877863,-4.068702,-1.946565
313458311,0.056885,0.074463,0.949951,-2.091603,-4.236641,-2.061069
313470180,0.058594,0.074707,0.958252,-2.282443,-4.190840,-1.961832
313482045,0.057373,0.076172,0.953369,-1.954198,-4.320611,-1.908397
313493904,0.058594,0.080322,0.952637,-2.198473,-4.076336,-1.870229
313505769,0.055664,0.074219,0.955078,-2.167939,-4.206107,-1.610687
313517641,0.052734,0.077148,0.962891,-2.137405,-4.007634,-2.053435
313529505,0.058105,0.076660,0.940186,-1.992366,-3.961832,-1.893130
313541372,0.054687,0.074951,0.959473,-1.961832,-4.145038,-1.847328
313553246,0.054443,0.076172,0.955566,-2.221374,-4.106870,-1.732824
313565107,0.056885,0.078125,0.955322,-2.083969,-4.229008,-2.022901
313576967,0.056152,0.078613,0.958740,-1.969466,-4.099236,-1.992366
313588831,0.059814,0.078369,0.961182,-2.007634,-4.198473,-1.862595
313600704,0.056152,0.080811,0.954590,-2.083969,-4.076336,-1.847328
313612572,0.060547,0.074707,0.953125,-1.992366,-4.145038,-1.793893
313624436,0.058350,0.072266,0.952393,-2.061069,-4.290076,-2.038168
313636308,0.056641,0.078125,0.957031,-2.114504,-4.114504,-1.870229
313648180,0.056396,0.071045,0.954102,-2.206107,-3.992366,-1.877863
313660045,0.054932,0.075928,0.951172,-1.916031,-4.267176,-1.946565
313671905,0.059326,0.071777,0.955811,-2.099237,-4.160306,-2.053435
313683769,0.055176,0.080811,0.966797,-2.045802,-4.251908,-1.877863
313695640,0.052734,0.080811,0.951416,-1.992366,-4.297710,-1.885496
313707505,0.051270,0.079346,0.957275,-2.175573,-4.236641,-1.923664
313719373,0.051514,0.081299,0.959229,-2.030534,-3.931298,-2.022901
313731244,0.051514,0.079102,0.956787,-2.137405,-4.122138,-2.007634
313743107,0.058838,0.080078,0.964355,-2.038168,-4.305344,-1.793893
313754967,0.057861,0.071777,0.956299,-2.145038,-4.175572,-1.893130
313766830,0.057617,0.077637,0.951660,-1.946565,-4.160306,-1.946565
313778704,0.057129,0.079834,0.955566,-1.938931,-4.267176,-1.854962
313790572,0.054932,0.075195,0.952637,-2.221374,-4.229008,-1.969466
313802436,0.052002,0.081299,0.952148,-1.778626,-4.122138,-2.076336
313814307,0.054932,0.078369,0.952148,-2.099237,-4.038168,-1.931298
313826179,0.056152,0.074707,0.957275,-2.129771,-4.259542,-1.900763
313838045,0.054199,0.081543,0.958252,-1.977099,-4.122138,-1.832061
313849904,0.051270,0.080078,0.950928,-2.053435,-4.160306,-1.854962
313861769,0.053955,0.072754,0.960937,-1.992366,-4.213740,-2.007634
313873640,0.047607,0.076660,0.949219,-1.931298,-4.167939,-1.877863
313885506,0.051758,0.078369,0.958008,-2.083969,-4.267176,-1.893130
313897370,0.057861,0.077148,0.959229,-1.984733,-4.244275,-2.083969
313909242,0.058838,0.075684,0.953369,-1.946565,-4.396946,-2.015267
313921107,0.050049,0.080322,0.964844,-2.061069,-4.267176,-1.885496
313932969,0.053955,0.076660,0.954346,-2.106870,-4.213740,-2.045802
313944834,0.053467,0.078857,0.959473,-2.038168,-4.343512,-1.977099
313956706,0.056641,0.075928,0.958252,-2.145038,-4.175572,-2.099237
313968572,0.052246,0.070312,0.944336,-1.877863,-4.076336,-1.893130
313980436,0.054443,0.079590,0.954346,-2.114504,-4.160306,-1.908397
313992307,0.059570,0.076904,0.956543,-2.000000,-4.282443,-1.885496
314004179,0.053223,0.077881,0.960449,-1.954198,-4.381680,-1.954198
314016045,0.054443,0.079834,0.954102,-1.916031,-4.000000,-1.961832
314027902,0.060547,0.071777,0.951904,-1.984733,-4.290076,-1.916031
314039768,0.050293,0.079590,0.958496,-1.938931,-4.213740,-1.946565
314051640,0.045898,0.075439,0.948486,-2.015267,-4.099236,-1.793893
314063506,0.055420,0.078613,0.954102,-2.015267,-4.206107,-1.854962
314075372,0.054199,0.071045,0.952393,-1.984733,-4.106870,-2.015267
314087243,0.058838,0.079590,0.964844,-2.221374,-4.274809,-2.007634
314099113,0.054199,0.070557,0.953613,-2.038168,-4.213740,-1.877863
314110972,0.060791,0.078369,0.958984,-2.015267,-4.122138,-1.816794
314122836,0.052979,0.078125,0.954346,-2.114504,-4.328244,-1.893130
314134709,0.058105,0.074707,0.952637,-2.152672,-4.198473,-2.030534
314146572,0.054687,0.074463,0.956299,-1.900763,-4.251908,-2.053435
314158436,0.048828,0.072754,0.960937,-2.061069,-4.465649,-1.870229
314170307,0.056152,0.072266,0.956787,-2.053435,-4.221374,-1.931298
314182179,0.049561,0.078857,0.958008,-1.870229,-4.213740,-1.793893
314194042,0.051270,0.078125,0.954834,-2.038168,-4.236641,-1.824427
314205904,0.049561,0.077637,0.961182,-1.969466,-4.122138,-1.908397
314217771,0.059326,0.074219,0.960205,-2.244275,-4.160306,-2.091603
314229640,0.059326,0.073730,0.955811,-2.152672,-4.091603,-1.824427
314241508,0.055420,0.081299,0.964355,-2.137405,-4.114504,-1.870229
314253370,0.054443,0.075439,0.946045,-2.129771,-4.190840,-2.053435
314265239,0.056396,0.072266,0.957520,-2.068702,-4.274809,-2.053435
314277106,0.052490,0.074951,0.955078,-1.946565,-4.267176,-1.854962
314288968,0.056885,0.079346,0.946045,-2.091603,-4.030534,-1.900763
314300831,0.055176,0.077148,0.953125,-1.908397,-4.160306,-2.000000
314312703,0.055908,0.068115,0.954834,-1.946565,-4.213740,-2.030534
314324571,0.053223,0.075928,0.957031,-2.145038,-4.198473,-2.106870
314336437,0.060791,0.077148,0.963867,-2.106870,-4.190840,-1.832061
314348308,0.061279,0.079346,0.960693,-1.946565,-4.274809,-2.022901
314360179,0.057373,0.078125,0.948975,-1.977099,-4.213740,-1.801527
314372045,0.057861,0.070557,0.951904,-2.061069,-3.740458,-1.885496
314383904,0.052490,0.075195,0.957031,-1.885496,-4.076336,-1.961832
314395771,0.052490,0.070801,0.945312,-1.748092,-4.000000,-2.007634
314407635,0.058350,0.079834,0.947510,-2.160305,-4.274809,-1.793893
314419502,0.056396,0.070312,0.951904,-1.839695,-4.206107,-2.045802
314431367,0.059570,0.084229,0.956543,-1.717557,-4.244275,-1.900763
314443239,0.061523,0.080811,0.961670,-2.519084,-4.061069,-1.793893
314455106,0.057373,0.072266,0.967041,-2.190840,-3.778626,-1.816794
314466968,0.050781,0.076172,0.948975,-2.381679,-3.931298,-1.748092
314478833,0.048096,0.073242,0.948486,-2.396947,-3.862595,-1.870229
314490706,0.051758,0.066895,0.950439,-2.572519,-4.374046,-1.717557
314502572,0.053955,0.074707,0.959717,-2.122137,-3.961832,-1.961832
314514436,0.055664,0.074707,0.956055,-1.984733,-4.053435,-1.938931
314526307,0.048340,0.077148,0.955811,-2.000000,-4.412214,-1.793893
314538181,0.048096,0.078857,0.955322,-2.106870,-4.198473,-1.977099
314550045,0.061768,0.079590,0.952148,-1.778626,-4.274809,-2.007634
314561904,0.060791,0.072510,0.960693,-2.030534,-4.305344,-2.099237
314573769,0.052734,0.079346,0.959473,-1.839695,-4.213740,-2.038168
314585640,0.061035,0.073486,0.963135,-1.679389,-4.435114,-2.007634
314597505,0.054199,0.061523,0.964600,-1.793893,-4.282443,-2.198473
314609373,0.052246,0.087158,0.950439,-1.152672,-4.900764,-2.213740
314621245,0.057129,0.084473,0.958740,-2.305344,-4.458015,-2.076336
314633113,0.053955,0.079346,0.973389,-1.389313,-3.862595,-2.007634
314644972,0.050537,0.080322,0.949219,-2.366412,-3.778626,-1.862595
314656837,0.050537,0.073486,0.935791,-1.732824,-4.610687,-2.114504
314668708,0.058594,0.072510,0.954590,-2.404580,-5.076336,-1.984733
314680576,0.067871,0.077393,0.960205,-2.145038,-3.854962,-1.931298
314692442,0.051270,0.075439,0.970703,-1.961832,-3.656489,-2.022901
314704314,0.050537,0.076416,0.946045,-1.633588,-4.305344,-2.076336
314716188,0.062256,0.073975,0.953125,-1.946565,-4.229008,-2.167939
314728055,0.054932,0.078613,0.962402,-1.916031,-4.503817,-1.992366
314739914,0.057617,0.074707,0.959229,-1.862595,-3.946565,-2.022901
314751781,0.055908,0.072510,0.956055,-1.778626,-4.190840,-1.954198
314763647,0.053223,0.077881,0.955566,-2.175573,-4.122138,-1.969466
314775509,0.059570,0.082031,0.950928,-2.236641,-4.045802,-1.900763
314787372,0.056396,0.081787,0.960693,-2.106870,-4.007634,-1.954198
314799242,0.054932,0.067139,0.952881,-2.229008,-4.000000,-1.900763
314811106,0.057373,0.077637,0.950195,-1.984733,-3.969466,-1.916031
314822968,0.055908,0.075928,0.958740,-2.045802,-4.007634,-1.786260
314834830,0.053467,0.071289,0.960449,-2.274809,-4.137404,-1.778626
314846704,0.053955,0.080811,0.949463,-2.045802,-4.007634,-1.977099
314858572,0.059570,0.074219,0.956543,-2.099237,-4.175572,-1.877863
314870436,0.053711,0.079590,0.955811,-2.152672,-4.374046,-1.984733
314882308,0.053711,0.079834,0.954590,-2.068702,-4.251908,-1.778626
314894179,0.053223,0.075439,0.955078,-2.190840,-4.206107,-1.832061
314906045,0.057373,0.074707,0.952881,-2.229008,-3.961832,-2.022901
314917903,0.050049,0.076172,0.956543,-2.114504,-4.114504,-1.923664
314929768,0.060791,0.080566,0.955811,-2.175573,-4.213740,-1.954198
314941640,0.058350,0.072510,0.951904,-1.969466,-4.236641,-2.129771
314953505,0.058838,0.072510,0.960937,-1.786260,-3.801527,-1.893130
314965372,0.048584,0.083984,0.950195,-1.335878,-4.419847,-2.007634
314977242,0.063477,0.073730,0.959229,-2.488550,-3.969466,-2.022901
